"Date","Treatment","Period","Subject","Group","Profit","TotalProfit","Participate","role","subrole","proposer","punisher","proposal","winning_allocation","winning_allocation_real","a1choice","a2choice","a3choice","a1choice_real","a2choice_real","a3choice_real","bchoice1","bchoice2","bchoice3","bchoice_real[1]","bchoice_real[2]","bchoice_real[3]","allocationA","allocationB","ug_self","ug_other","ug_accept[1]","ug_accept[2]","ug_accept[3]","ug_accept[4]","ug_accept[5]","ug_accept[6]","guess","guessBrackets[1]","guessBrackets[2]","guessBrackets[3]","guessBrackets[4]","guessBrackets[5]","brackets[1]","brackets[2]","brackets[3]","brackets[4]","brackets[5]","prog_rand","prog_randpunisher","prog_rand2","prog_rand3","prog_rank","prog_rank2","ugRole","ugGroup","role_rank","proposal_submitted","current_voter","a1choice_p","a2choice_p","a3choice_p","payment_period","stage1profit","profit_stage1role","profit_stage1subrole","profit_stage1proposer","profit_stage1proposal","profit_stage1punisher","profit_stage1a1","profit_stage1a2","profit_stage1a3","profit_stage1b1","profit_stage1b2","profit_stage1b3","profit_winningAllocation","ispaymentround","stage2bProfit","stage2aProfit","stage3Profit","stage4Profit","gamble[1]","gamble[2]","gamble[3]","gamble[4]","gamble[5]","risk_choice","risk_location","circle_random","perturbation_multiplier","perturb[1]","perturb[2]","perturb[3]","perturb[4]","show_results","winner","show_error","click_x","click_y","TimeOKInstructionsIOK","q1","q2","q3","q4","q5","q6","q7","q1a","q2a","q3a","q4a","q5a","q6a","q7a","q1c","q2c","q3c","q4c","q5c","q6c","q7c","allright","show_info","interval","TimeSubmitQuiz1OK","TimeContinueQuiz1OK","TimeTryAgainQuiz1OK","TimeSubmitQuiz2OK","TimeContinueQuiz2OK","TimeTryAgainQuiz2OK","TimeSubmitQuiz3OK","TimeContinueQuiz3OK","TimeTryAgainQuiz3OK","TimeSubmitQuiz4OK","TimeContinueQuiz4OK","TimeTryAgainQuiz4OK","LeaveStage","TimeSubmitADecisionOK","TimeVoteADecisionOK","showWin","bsdone","show_errors","TimeSubmitBDecisionOK","TimeOKBDecisionOK","groupBeautyContest","TimeContinueBCGame1OK","sumGuessPercentage","true","false","displayContinueButton","TimeSubmitBCGame2OK","TimeContinueBCGame2OK","distance","BC_winner","diffBrackets","TimeOKUGGame1OK","TimeOKUGGame2OK","TimeOKEGTaskOK","prog_ug_t1","prog_ug_t2","prog_ug_accepted","TimeOKFinalResultsOK"
"141023_1115",1,1,1,1,0,0,0,0,1,3,2,2,1,1,1,1,2,1,1,3,-1,-1,-1,0,0,0,9,1,-1,-1,-1,-1,-1,-1,-1,-1,-1,-1,-1,-1,-1,-1,100,0,0,0,0,0.288990799937859,3,0.868779836627087,0.365211282095505,2,10,1,5,1,1,4,1,-1,-1,21,0,-1,-1,-1,-1,-1,-1,-1,-1,-1,-1,-1,-1,0,0,0,1,-1,5,4,2,3,1,-1,-1,3,0,0,0,0,0,0,-1,0,-1,-1,-1197,1,1,1,1,0,1,-1,1,1,1,1,0,1,-1,1,1,1,1,1,1,1,1,11,-1,-3,-4,0,-69,-70,-65,-14,-16,0,-28,-29,-25,0,0,14,1,2,0,0,0,1,0,0,1,0,0,0,0,0.500092982553548,0,105,0,0,0,-1,-1,-1,0
"141023_1115",1,1,2,2,0,0,0,1,1,3,3,3,2,3,1,2,2,2,3,3,0,0,0,0,0,0,5,5,-1,-1,-1,-1,-1,-1,-1,-1,-1,-1,-1,-1,-1,-1,100,0,0,0,0,0.635078022086563,3,0.267049663824518,0.80670933882087,7,5,2,3,4,1,4,-1,-1,-1,19,0,-1,-1,-1,-1,-1,-1,-1,-1,-1,-1,-1,-1,0,0,0,1,-1,4,3,1,2,5,-1,-1,2,0,0,0,0,0,0,-1,0,-1,-1,-1203,1,1,1,1,0,1,-1,1,1,1,1,0,1,-1,1,1,1,1,1,1,1,1,11,-1,-6,-14,NA,-27,-27,-21,4,3,0,-2,-3,0,0,0,0,1,2,0,24,0,1,NA,0,1,0,NA,NA,NA,0.500055179048681,0,105,NA,NA,NA,-1,-1,-1,NA
"141023_1115",1,1,3,2,0,0,0,0,2,3,3,3,2,3,1,2,2,2,3,3,-1,-1,-1,0,0,0,5,5,-1,-1,-1,-1,-1,-1,-1,-1,-1,-1,-1,-1,-1,-1,100,0,0,0,0,0.847536900941067,2,0.337906995014244,0.819783268878135,10,6,1,3,5,1,4,-1,2,-1,28,0,-1,-1,-1,-1,-1,-1,-1,-1,-1,-1,-1,-1,0,0,0,1,-1,2,1,5,4,3,-1,-1,1,0,0,0,0,0,0,-1,0,-1,-1,-1204,1,1,1,1,0,1,-1,1,1,1,1,0,1,-1,1,1,1,1,1,1,1,1,11,-1,2,1,NA,-44,-45,-41,6,6,0,5,4,8,0,0,-18,1,2,0,0,0,1,NA,0,1,0,NA,NA,NA,0.500075381694164,0,105,NA,NA,NA,-1,-1,-1,NA
"141023_1115",1,1,4,1,0,0,0,1,1,3,2,2,1,1,1,1,2,1,1,3,5,2,0,0,0,0,9,1,-1,-1,-1,-1,-1,-1,-1,-1,-1,-1,-1,-1,-1,-1,100,0,0,0,0,0.10601817914565,2,0.258437046901526,0.754991082826159,1,4,1,2,1,1,4,-1,-1,-1,2,0,-1,-1,-1,-1,-1,-1,-1,-1,-1,-1,-1,-1,0,0,0,1,-1,4,3,1,2,5,-1,-1,2,0,0,0,0,0,0,-1,0,-1,-1,-1204,1,1,1,1,0,1,-1,1,1,1,1,0,1,-1,1,1,1,1,1,1,1,1,11,-1,-54,-56,NA,-81,-84,-43,-61,-62,-42,-5,-5,-2,0,0,0,1,2,0,-4,1,1,NA,0,1,0,NA,NA,NA,0.50006716417855,0,105,NA,NA,NA,-1,-1,-1,NA
"141023_1115",1,1,5,1,0,0,0,0,3,3,2,2,1,1,1,1,2,1,1,3,-1,-1,-1,0,0,0,9,1,-1,-1,-1,-1,-1,-1,-1,-1,-1,-1,-1,-1,-1,-1,100,0,0,0,0,0.552694116510774,1,0.896747490808716,0.616028325453414,6,11,2,6,3,1,4,-1,-1,2,9,0,-1,-1,-1,-1,-1,-1,-1,-1,-1,-1,-1,-1,0,0,5,1,-1,3,5,4,1,2,-1,-1,0,0,0,0,0,0,0,-1,0,-1,-1,-1200,1,1,1,1,0,1,-1,1,1,1,1,0,1,-1,1,1,1,1,1,1,1,1,11,-1,-4,-7,NA,-6,-8,0,6,2,0,-16,-17,-6,0,23,-4,1,2,0,0,0,1,NA,0,1,0,NA,NA,NA,0.500021880439493,1,105,NA,NA,NA,-1,-1,-1,NA
"141023_1115",1,1,6,2,0,0,0,1,2,3,3,3,2,3,1,2,2,2,3,3,0,0,0,0,0,0,5,5,-1,-1,-1,-1,-1,-1,-1,-1,-1,-1,-1,-1,-1,-1,100,0,0,0,0,0.839827469941148,3,0.0354582229794274,0.22293632441337,9,2,1,1,5,1,4,-1,-1,-1,5,0,-1,-1,-1,-1,-1,-1,-1,-1,-1,-1,-1,-1,0,0,0,1,-1,2,1,5,4,3,-1,-1,1,0,0,0,0,0,0,-1,0,-1,-1,-1200,1,1,1,1,0,1,-1,1,1,1,1,0,1,-1,1,1,1,1,1,1,1,1,11,-1,-7,-10,NA,-15,-16,0,4,4,0,-59,-62,-56,0,0,0,1,2,0,24,0,1,NA,0,1,0,NA,NA,NA,0.500071993685361,0,105,NA,NA,NA,-1,-1,-1,NA
"141023_1115",1,1,7,1,0,0,0,0,2,3,2,2,1,1,1,1,2,1,1,3,-1,-1,-1,0,0,0,9,1,-1,-1,-1,-1,-1,-1,-1,-1,-1,-1,-1,-1,-1,-1,100,0,0,0,0,0.363857562357494,1,0.588065895525769,0.0892851804798866,4,9,2,5,2,1,4,-1,1,-1,13,0,-1,-1,-1,-1,-1,-1,-1,-1,-1,-1,-1,-1,0,0,0,1,-1,2,1,5,4,3,-1,-1,1,0,0,0,0,0,0,-1,0,-1,-1,-1215,1,1,1,1,0,1,-1,1,1,1,1,0,1,-1,1,1,1,1,1,1,1,1,11,-1,-2,-4,NA,-40,-41,-14,-10,-11,0,2,1,4,0,0,0,1,2,0,0,0,1,NA,0,1,0,NA,NA,NA,0.50008034787098,0,105,NA,NA,NA,-1,-1,-1,NA
"141023_1115",1,1,8,1,0,0,0,1,3,3,2,2,1,1,1,1,2,1,1,3,0,0,5,0,0,0,9,1,-1,-1,-1,-1,-1,-1,-1,-1,-1,-1,-1,-1,-1,-1,100,0,0,0,0,0.423329532809243,2,0.407409574560546,0.251246243366621,5,8,1,4,3,1,4,-1,-1,-1,14,0,-1,-1,-1,-1,-1,-1,-1,-1,-1,-1,-1,-1,0,0,0,1,-1,2,1,5,4,3,-1,-1,1,0,0,0,0,0,0,-1,0,-1,-1,-1201,1,1,1,1,0,1,-1,1,1,1,1,0,1,-1,1,1,1,1,1,1,1,1,11,-1,-45,-46,NA,-127,-140,-121,-223,-225,-161,-39,-40,-28,0,0,0,1,2,0,19,0,1,NA,0,1,0,NA,NA,NA,0.500051377300756,0,105,NA,NA,NA,-1,-1,-1,NA
"141023_1115",1,1,9,2,0,0,0,1,3,3,3,3,2,3,1,2,2,2,3,3,0,0,0,0,0,0,5,5,-1,-1,-1,-1,-1,-1,-1,-1,-1,-1,-1,-1,-1,-1,100,0,0,0,0,0.98028730087927,2,0.155300756988721,0.171155797862986,11,3,2,2,6,1,4,-1,-1,-1,19,0,-1,-1,-1,-1,-1,-1,-1,-1,-1,-1,-1,-1,0,0,0,1,-1,3,5,4,1,2,-1,-1,0,0,0,0,0,0,0,-1,0,-1,-1,-1203,1,1,1,1,0,1,-1,1,1,1,1,0,1,-1,1,1,1,1,1,1,1,1,11,-1,0,-3,NA,-20,-22,0,6,4,0,-22,-33,-17,0,0,0,1,2,0,14,0,1,NA,0,1,0,NA,NA,NA,0.500028348887399,0,105,NA,NA,NA,-1,-1,-1,NA
"141023_1115",1,1,10,1,0,0,0,1,2,3,2,2,1,1,1,1,2,1,1,3,0,0,0,0,0,0,9,1,-1,-1,-1,-1,-1,-1,-1,-1,-1,-1,-1,-1,-1,-1,100,0,0,0,0,0.315974568163964,3,0.0189743302850864,0.284125006889983,3,1,2,1,2,1,4,-1,-1,-1,5,0,-1,-1,-1,-1,-1,-1,-1,-1,-1,-1,-1,-1,0,0,0,1,-1,2,1,5,4,3,-1,-1,1,0,0,0,0,0,0,-1,0,-1,-1,-1193,1,1,1,1,0,1,-1,1,1,1,1,0,1,-1,1,1,1,1,1,1,1,1,11,-1,-46,-50,NA,-10,-15,0,-5,-7,0,-145,-145,-136,0,0,0,1,2,0,14,0,1,NA,0,1,0,NA,NA,NA,0.500095969023461,0,105,NA,NA,NA,-1,-1,-1,NA
"141023_1115",1,1,11,2,0,0,0,0,3,3,3,3,2,3,1,2,2,2,3,3,-1,-1,-1,0,0,0,5,5,-1,-1,-1,-1,-1,-1,-1,-1,-1,-1,-1,-1,-1,-1,100,0,0,0,0,0.987747103901462,1,0.930072013721835,0.422221639390207,12,12,1,6,6,1,4,-1,-1,2,20,0,-1,-1,-1,-1,-1,-1,-1,-1,-1,-1,-1,-1,0,0,0,1,-1,4,3,1,2,5,-1,-1,2,0,0,0,0,0,0,-1,0,-1,-1,-1203,1,1,1,1,0,1,-1,1,1,1,1,0,1,-1,1,1,1,1,1,1,1,1,11,-1,-33,-40,NA,-30,-34,0,-25,-31,0,-203,-206,-199,0,-2,-29,1,2,0,0,0,1,NA,0,1,0,NA,NA,NA,0.500040293491045,0,105,NA,NA,NA,-1,-1,-1,NA
"141023_1115",1,1,12,2,0,0,0,0,1,3,3,3,2,3,1,2,2,2,3,3,-1,-1,-1,0,0,0,5,5,-1,-1,-1,-1,-1,-1,-1,-1,-1,-1,-1,-1,-1,-1,100,0,0,0,0,0.66470391147989,1,0.404345798028794,0.127074023767875,8,7,2,4,4,1,4,1,-1,-1,1,5,0,1,3,3,3,2,3,3,0,0,0,3,1,0,0,1,-1,5,4,2,3,1,-1,-1,3,0,0,0,0,0,0,-1,0,-1,-1,-1202,1,1,1,1,0,1,-1,1,1,1,1,0,1,-1,1,1,1,1,1,1,1,1,11,-1,-18,-20,NA,-5,-7,0,1,-1,0,-115,-117,-110,0,0,-9,1,2,0,0,0,1,NA,0,1,0,NA,NA,NA,0.500093963247069,0,105,NA,NA,NA,-1,-1,-1,NA
"141023_1115",1,2,1,1,0,0,0,0,2,3,1,3,1,2,1,1,2,2,2,3,-1,-1,-1,0,0,0,7,3,-1,-1,-1,-1,-1,-1,-1,-1,-1,-1,-1,-1,-1,-1,100,0,0,0,0,0.128457553744529,3,0.401338116452721,0.986105784301695,5,7,2,4,2,1,4,-1,1,-1,21,0,-1,-1,-1,-1,-1,-1,-1,-1,-1,-1,-1,-1,0,0,0,1,-1,4,3,1,2,5,-1,-1,2,0,0,0,0,0,0,-1,0,-1,-1,NA,-1,-1,-1,-1,-1,-1,-1,1,1,1,1,0,1,-1,-1,-1,-1,-1,-1,-1,-1,-1,NA,NA,NA,NA,NA,NA,NA,NA,NA,NA,NA,NA,NA,NA,0,0,12,1,2,0,0,NA,1,NA,0,1,0,NA,NA,NA,0.500088668038225,0,105,NA,NA,NA,-1,-1,-1,NA
"141023_1115",1,2,2,1,0,0,0,1,2,3,1,3,1,2,1,1,2,2,2,3,3,4,0,0,0,0,7,3,-1,-1,-1,-1,-1,-1,-1,-1,-1,-1,-1,-1,-1,-1,100,0,0,0,0,0.0745849958968279,1,0.882437583004328,0.303738312937197,2,8,1,4,2,1,4,-1,-1,-1,19,0,-1,-1,-1,-1,-1,-1,-1,-1,-1,-1,-1,-1,0,0,0,1,-1,2,1,5,4,3,-1,-1,1,0,0,0,0,0,0,-1,0,-1,-1,NA,-1,-1,-1,-1,-1,-1,-1,1,1,1,1,0,1,-1,-1,-1,-1,-1,-1,-1,-1,-1,NA,NA,NA,NA,NA,NA,NA,NA,NA,NA,NA,NA,NA,NA,0,0,0,1,2,0,10,NA,1,NA,0,1,0,NA,NA,NA,0.50007598017169,0,105,NA,NA,NA,-1,-1,-1,NA
"141023_1115",1,2,3,1,0,0,0,0,3,3,1,3,1,2,1,1,2,2,2,3,-1,-1,-1,0,0,0,7,3,-1,-1,-1,-1,-1,-1,-1,-1,-1,-1,-1,-1,-1,-1,100,0,0,0,0,0.512194032553674,2,0.313383065775681,0.849574151378858,8,5,2,3,3,1,4,-1,-1,2,28,0,-1,-1,-1,-1,-1,-1,-1,-1,-1,-1,-1,-1,0,0,0,1,-1,5,4,2,3,1,-1,-1,3,0,0,0,0,0,0,-1,0,-1,-1,NA,-1,-1,-1,-1,-1,-1,-1,1,1,1,1,0,1,-1,-1,-1,-1,-1,-1,-1,-1,-1,NA,NA,NA,NA,NA,NA,NA,NA,NA,NA,NA,NA,NA,NA,0,23,9,1,2,0,0,NA,1,NA,0,1,0,NA,NA,NA,0.500030354588633,0,105,NA,NA,NA,-1,-1,-1,NA
"141023_1115",1,2,4,1,0,0,0,1,3,3,1,3,1,2,1,1,2,2,2,3,3,3,0,0,0,0,7,3,-1,-1,-1,-1,-1,-1,-1,-1,-1,-1,-1,-1,-1,-1,100,0,0,0,0,0.114099019260192,1,0.394774710943352,0.365070757626123,3,6,1,3,3,1,4,-1,-1,-1,2,3,1,3,3,3,1,2,2,3,0,0,0,2,1,0,0,1,-1,5,4,2,3,1,-1,-1,3,0,0,0,0,0,0,-1,0,-1,-1,NA,-1,-1,-1,-1,-1,-1,-1,1,1,1,1,0,1,-1,-1,-1,-1,-1,-1,-1,-1,-1,NA,NA,NA,NA,NA,NA,NA,NA,NA,NA,NA,NA,NA,NA,0,0,0,1,2,0,16,NA,1,NA,0,1,0,NA,NA,NA,0.500098745589703,0,105,NA,NA,NA,-1,-1,-1,NA
"141023_1115",1,2,5,2,0,0,0,0,3,3,2,2,2,3,2,2,2,3,3,3,-1,-1,-1,0,0,0,5,5,-1,-1,-1,-1,-1,-1,-1,-1,-1,-1,-1,-1,-1,-1,100,0,0,0,0,0.978698622425412,3,0.97856682491422,0.591408081162445,12,11,2,6,6,1,4,-1,-1,2,9,0,-1,-1,-1,-1,-1,-1,-1,-1,-1,-1,-1,-1,0,0,0,1,-1,3,5,4,1,2,-1,-1,0,0,0,0,0,0,0,-1,0,-1,-1,NA,-1,-1,-1,-1,-1,-1,-1,1,1,1,1,0,1,-1,-1,-1,-1,-1,-1,-1,-1,-1,NA,NA,NA,NA,NA,NA,NA,NA,NA,NA,NA,NA,NA,NA,0,27,5,1,2,0,0,NA,1,NA,0,1,0,NA,NA,NA,0.500021076455582,0,105,NA,NA,NA,-1,-1,-1,NA
"141023_1115",1,2,6,1,0,0,0,1,1,3,1,3,1,2,1,1,2,2,2,3,0,0,0,0,0,0,7,3,-1,-1,-1,-1,-1,-1,-1,-1,-1,-1,-1,-1,-1,-1,100,0,0,0,0,0.0655752718753998,1,0.982938020947826,0.986973941320076,1,12,1,6,1,1,4,-1,-1,-1,5,0,-1,-1,-1,-1,-1,-1,-1,-1,-1,-1,-1,-1,0,0,0,1,-1,2,1,5,4,3,-1,-1,1,0,0,0,0,0,0,-1,0,-1,-1,NA,-1,-1,-1,-1,-1,-1,-1,1,1,1,1,0,1,-1,-1,-1,-1,-1,-1,-1,-1,-1,NA,NA,NA,NA,NA,NA,NA,NA,NA,NA,NA,NA,NA,NA,0,0,0,1,2,0,26,NA,1,NA,0,1,0,NA,NA,NA,0.500069053665581,0,105,NA,NA,NA,-1,-1,-1,NA
"141023_1115",1,2,7,1,0,0,0,0,1,3,1,3,1,2,1,1,2,2,2,3,-1,-1,-1,0,0,0,7,3,-1,-1,-1,-1,-1,-1,-1,-1,-1,-1,-1,-1,-1,-1,100,0,0,0,0,0.114472636074979,1,0.932118431167732,0.858370678899051,4,9,2,5,1,1,4,1,-1,-1,13,0,-1,-1,-1,-1,-1,-1,-1,-1,-1,-1,-1,-1,0,0,0,1,-1,2,1,5,4,3,-1,-1,1,0,0,0,0,0,0,-1,0,-1,-1,NA,-1,-1,-1,-1,-1,-1,-1,1,1,1,1,0,1,-1,-1,-1,-1,-1,-1,-1,-1,-1,NA,NA,NA,NA,NA,NA,NA,NA,NA,NA,NA,NA,NA,NA,0,0,17,1,2,0,0,NA,1,NA,0,1,0,NA,NA,NA,0.500043718449466,0,105,NA,NA,NA,-1,-1,-1,NA
"141023_1115",1,2,8,2,0,0,0,1,3,3,2,2,2,3,2,2,2,3,3,3,0,0,0,0,0,0,5,5,-1,-1,-1,-1,-1,-1,-1,-1,-1,-1,-1,-1,-1,-1,100,0,0,0,0,0.55787233615195,2,0.284197029790001,0.881913094726351,9,3,2,2,6,1,4,-1,-1,-1,14,0,-1,-1,-1,-1,-1,-1,-1,-1,-1,-1,-1,-1,0,0,0,1,-1,5,4,2,3,1,-1,-1,3,0,0,0,0,0,0,-1,0,-1,-1,NA,-1,-1,-1,-1,-1,-1,-1,1,1,1,1,0,1,-1,-1,-1,-1,-1,-1,-1,-1,-1,NA,NA,NA,NA,NA,NA,NA,NA,NA,NA,NA,NA,NA,NA,0,0,0,1,2,0,22,NA,1,NA,0,1,0,NA,NA,NA,0.500089418637328,0,105,NA,NA,NA,-1,-1,-1,NA
"141023_1115",1,2,9,2,0,0,0,1,2,3,2,2,2,3,2,2,2,3,3,3,0,0,0,0,0,0,5,5,-1,-1,-1,-1,-1,-1,-1,-1,-1,-1,-1,-1,-1,-1,100,0,0,0,0,0.445105129594498,1,0.960961674787552,0.479916758593133,7,10,1,5,5,1,4,-1,-1,-1,19,0,-1,-1,-1,-1,-1,-1,-1,-1,-1,-1,-1,-1,0,0,5,1,-1,2,1,5,4,3,-1,-1,1,0,0,0,0,0,0,-1,0,-1,-1,NA,-1,-1,-1,-1,-1,-1,-1,1,1,1,1,0,1,-1,-1,-1,-1,-1,-1,-1,-1,-1,NA,NA,NA,NA,NA,NA,NA,NA,NA,NA,NA,NA,NA,NA,0,0,0,1,2,0,21,NA,1,NA,0,1,0,NA,NA,NA,0.500017126133906,1,105,NA,NA,NA,-1,-1,-1,NA
"141023_1115",1,2,10,2,0,0,0,1,1,3,2,2,2,3,2,2,2,3,3,3,0,0,0,0,0,0,5,5,-1,-1,-1,-1,-1,-1,-1,-1,-1,-1,-1,-1,-1,-1,100,0,0,0,0,0.269058998333783,2,0.071031766511049,0.83089975120076,6,1,2,1,4,1,4,-1,-1,-1,5,0,-1,-1,-1,-1,-1,-1,-1,-1,-1,-1,-1,-1,0,0,0,1,-1,4,3,1,2,5,-1,-1,2,0,0,0,0,0,0,-1,0,-1,-1,NA,-1,-1,-1,-1,-1,-1,-1,1,1,1,1,0,1,-1,-1,-1,-1,-1,-1,-1,-1,-1,NA,NA,NA,NA,NA,NA,NA,NA,NA,NA,NA,NA,NA,NA,0,0,0,1,2,0,24,NA,1,NA,0,1,0,NA,NA,NA,0.500028356735841,0,105,NA,NA,NA,-1,-1,-1,NA
"141023_1115",1,2,11,2,0,0,0,0,1,3,2,2,2,3,2,2,2,3,3,3,-1,-1,-1,0,0,0,5,5,-1,-1,-1,-1,-1,-1,-1,-1,-1,-1,-1,-1,-1,-1,100,0,0,0,0,0.671888036034949,3,0.256308478888268,0.727965392511322,10,2,1,1,4,1,4,2,-1,-1,20,0,-1,-1,-1,-1,-1,-1,-1,-1,-1,-1,-1,-1,0,0,0,1,-1,5,4,2,3,1,-1,-1,3,0,0,0,0,0,0,-1,0,-1,-1,NA,-1,-1,-1,-1,-1,-1,-1,1,1,1,1,0,1,-1,-1,-1,-1,-1,-1,-1,-1,-1,NA,NA,NA,NA,NA,NA,NA,NA,NA,NA,NA,NA,NA,NA,0,0,15,1,2,0,0,NA,1,NA,0,1,0,NA,NA,NA,0.5000395747713,0,105,NA,NA,NA,-1,-1,-1,NA
"141023_1115",1,2,12,2,0,0,0,0,2,3,2,2,2,3,2,2,2,3,3,3,-1,-1,-1,0,0,0,5,5,-1,-1,-1,-1,-1,-1,-1,-1,-1,-1,-1,-1,-1,-1,100,0,0,0,0,0.795620097217904,3,0.303158489197101,0.00888283411454541,11,4,1,2,5,1,4,-1,2,-1,1,5,0,1,3,3,3,2,3,3,0,0,0,3,0,0,0,1,-1,2,1,5,4,3,-1,-1,1,0,0,0,0,0,0,-1,0,-1,-1,NA,-1,-1,-1,-1,-1,-1,-1,1,1,1,1,0,1,-1,-1,-1,-1,-1,-1,-1,-1,-1,NA,NA,NA,NA,NA,NA,NA,NA,NA,NA,NA,NA,NA,NA,0,0,8,1,2,0,0,NA,1,NA,0,1,0,NA,NA,NA,0.500064914682957,0,105,NA,NA,NA,-1,-1,-1,NA
"141023_1115",1,3,1,1,0,0,0,0,1,2,2,2,1,1,1,1,2,1,1,3,-1,-1,-1,0,0,0,9,1,-1,-1,-1,-1,-1,-1,-1,-1,-1,-1,-1,-1,-1,-1,100,0,0,0,0,0.277860943823057,1,0.51969344705329,0.0291864918680799,3,5,2,3,1,1,4,1,-1,-1,21,0,-1,-1,-1,-1,-1,-1,-1,-1,-1,-1,-1,-1,0,0,0,1,-1,2,1,5,4,3,-1,-1,1,0,0,0,0,0,0,-1,0,-1,-1,NA,-1,-1,-1,-1,-1,-1,-1,1,1,1,1,0,1,-1,-1,-1,-1,-1,-1,-1,-1,-1,NA,NA,NA,NA,NA,NA,NA,NA,NA,NA,NA,NA,NA,NA,0,0,14,1,2,0,0,0,1,NA,0,1,0,NA,NA,NA,0.500025774124416,0,105,NA,NA,NA,-1,-1,-1,NA
"141023_1115",1,3,2,2,0,0,0,1,1,2,2,2,2,3,1,2,2,1,3,3,0,0,0,0,0,0,5,5,-1,-1,-1,-1,-1,-1,-1,-1,-1,-1,-1,-1,-1,-1,100,0,0,0,0,0.822966997894909,2,0.778331910156799,0.389325623116142,9,11,2,6,4,1,4,-1,-1,-1,19,0,-1,-1,-1,-1,-1,-1,-1,-1,-1,-1,-1,-1,0,0,0,1,-1,2,1,5,4,3,-1,-1,1,0,0,0,0,0,0,-1,0,-1,-1,NA,-1,-1,-1,-1,-1,-1,-1,1,1,1,1,0,1,-1,-1,-1,-1,-1,-1,-1,-1,-1,NA,NA,NA,NA,NA,NA,NA,NA,NA,NA,NA,NA,NA,NA,0,0,0,1,2,0,25,0,1,NA,0,1,0,NA,NA,NA,0.500015281731689,0,105,NA,NA,NA,-1,-1,-1,NA
"141023_1115",1,3,3,2,0,0,0,0,3,2,2,2,2,3,1,2,2,1,3,3,-1,-1,-1,0,0,0,5,5,-1,-1,-1,-1,-1,-1,-1,-1,-1,-1,-1,-1,-1,-1,100,0,0,0,0,0.860046328445918,1,0.636150948533859,0.798642190545165,10,9,2,5,6,1,4,-1,-1,2,28,0,-1,-1,-1,-1,-1,-1,-1,-1,-1,-1,-1,-1,0,0,0,1,-1,2,1,5,4,3,-1,-1,1,0,0,0,0,0,0,-1,0,-1,-1,NA,-1,-1,-1,-1,-1,-1,-1,1,1,1,1,0,1,-1,-1,-1,-1,-1,-1,-1,-1,-1,NA,NA,NA,NA,NA,NA,NA,NA,NA,NA,NA,NA,NA,NA,0,0,16,1,2,0,0,0,1,NA,0,1,0,NA,NA,NA,0.500038685632096,0,105,NA,NA,NA,-1,-1,-1,NA
"141023_1115",1,3,4,1,0,0,0,1,3,2,2,2,1,1,1,1,2,1,1,3,3,3,0,0,0,0,9,1,-1,-1,-1,-1,-1,-1,-1,-1,-1,-1,-1,-1,-1,-1,100,0,0,0,0,0.626245227933976,2,0.0849924218305351,0.513018383417753,5,1,2,1,3,1,4,-1,-1,-1,2,3,1,3,3,3,1,2,2,3,0,0,0,2,0,0,0,1,-1,3,5,4,1,2,-1,-1,0,0,0,0,0,0,0,-1,0,-1,-1,NA,-1,-1,-1,-1,-1,-1,-1,1,1,1,1,0,1,-1,-1,-1,-1,-1,-1,-1,-1,-1,NA,NA,NA,NA,NA,NA,NA,NA,NA,NA,NA,NA,NA,NA,0,0,0,1,2,0,16,0,1,NA,0,1,0,NA,NA,NA,0.500020608091271,0,105,NA,NA,NA,-1,-1,-1,NA
"141023_1115",1,3,5,2,0,0,0,0,2,2,2,2,2,3,1,2,2,1,3,3,-1,-1,-1,0,0,0,5,5,-1,-1,-1,-1,-1,-1,-1,-1,-1,-1,-1,-1,-1,-1,100,0,0,0,0,0.78899200856173,2,0.590339103522868,0.91435193778684,8,7,2,4,5,1,4,-1,2,-1,9,0,-1,-1,-1,-1,-1,-1,-1,-1,-1,-1,-1,-1,0,0,0,1,-1,2,1,5,4,3,-1,-1,1,0,0,0,0,0,0,-1,0,-1,-1,NA,-1,-1,-1,-1,-1,-1,-1,1,1,1,1,0,1,-1,-1,-1,-1,-1,-1,-1,-1,-1,NA,NA,NA,NA,NA,NA,NA,NA,NA,NA,NA,NA,NA,NA,0,27,20,1,2,0,0,0,1,NA,0,1,0,NA,NA,NA,0.500077017820802,0,105,NA,NA,NA,-1,-1,-1,NA
"141023_1115",1,3,6,2,0,0,0,1,2,2,2,2,2,3,1,2,2,1,3,3,0,0,0,0,0,0,5,5,-1,-1,-1,-1,-1,-1,-1,-1,-1,-1,-1,-1,-1,-1,100,0,0,0,0,0.916592730636053,1,0.229760834122897,0.0647338396239718,11,3,2,2,5,1,4,-1,-1,-1,5,0,-1,-1,-1,-1,-1,-1,-1,-1,-1,-1,-1,-1,0,0,0,1,-1,5,4,2,3,1,-1,-1,3,0,0,0,0,0,0,-1,0,-1,-1,NA,-1,-1,-1,-1,-1,-1,-1,1,1,1,1,0,1,-1,-1,-1,-1,-1,-1,-1,-1,-1,NA,NA,NA,NA,NA,NA,NA,NA,NA,NA,NA,NA,NA,NA,0,0,0,1,2,0,25,0,1,NA,0,1,0,NA,NA,NA,0.500040064497264,0,105,NA,NA,NA,-1,-1,-1,NA
"141023_1115",1,3,7,2,0,0,0,0,1,2,2,2,2,3,1,2,2,1,3,3,-1,-1,-1,0,0,0,5,5,-1,-1,-1,-1,-1,-1,-1,-1,-1,-1,-1,-1,-1,-1,100,0,0,0,0,0.77882763593403,1,0.160579423494907,0.860618593571996,7,2,1,1,4,1,4,1,-1,-1,13,0,-1,-1,-1,-1,-1,-1,-1,-1,-1,-1,-1,-1,0,0,5,1,-1,2,1,5,4,3,-1,-1,1,0,0,0,0,0,0,-1,0,-1,-1,NA,-1,-1,-1,-1,-1,-1,-1,1,1,1,1,0,1,-1,-1,-1,-1,-1,-1,-1,-1,-1,NA,NA,NA,NA,NA,NA,NA,NA,NA,NA,NA,NA,NA,NA,0,0,23,1,2,0,0,0,1,NA,0,1,0,NA,NA,NA,0.500009332238561,1,105,NA,NA,NA,-1,-1,-1,NA
"141023_1115",1,3,8,2,0,0,0,1,3,2,2,2,2,3,1,2,2,1,3,3,5,0,0,0,0,0,5,5,-1,-1,-1,-1,-1,-1,-1,-1,-1,-1,-1,-1,-1,-1,100,0,0,0,0,0.943646136645063,1,0.537368826818359,0.81800903557707,12,6,1,3,6,1,4,-1,-1,-1,14,0,-1,-1,-1,-1,-1,-1,-1,-1,-1,-1,-1,-1,0,0,0,1,-1,2,1,5,4,3,-1,-1,1,0,0,0,0,0,0,-1,0,-1,-1,NA,-1,-1,-1,-1,-1,-1,-1,1,1,1,1,0,1,-1,-1,-1,-1,-1,-1,-1,-1,-1,NA,NA,NA,NA,NA,NA,NA,NA,NA,NA,NA,NA,NA,NA,0,0,0,1,2,0,-12,-5,1,NA,0,1,0,NA,NA,NA,0.500053216514016,0,105,NA,NA,NA,-1,-1,-1,NA
"141023_1115",1,3,9,1,0,0,0,1,1,2,2,2,1,1,1,1,2,1,1,3,4,3,0,0,0,0,9,1,-1,-1,-1,-1,-1,-1,-1,-1,-1,-1,-1,-1,-1,-1,100,0,0,0,0,0.0774849234509677,2,0.694112194093928,0.385142202202763,1,10,1,5,1,1,4,-1,-1,-1,19,0,-1,-1,-1,-1,-1,-1,-1,-1,-1,-1,-1,-1,0,0,0,1,-1,5,4,2,3,1,-1,-1,3,0,0,0,0,0,0,-1,0,-1,-1,NA,-1,-1,-1,-1,-1,-1,-1,1,1,1,1,0,1,-1,-1,-1,-1,-1,-1,-1,-1,-1,NA,NA,NA,NA,NA,NA,NA,NA,NA,NA,NA,NA,NA,NA,0,0,0,1,2,0,-16,0,1,NA,0,1,0,NA,NA,NA,0.500012284513056,0,105,NA,NA,NA,-1,-1,-1,NA
"141023_1115",1,3,10,1,0,0,0,1,2,2,2,2,1,1,1,1,2,1,1,3,0,0,0,0,0,0,9,1,-1,-1,-1,-1,-1,-1,-1,-1,-1,-1,-1,-1,-1,-1,100,0,0,0,0,0.077543005849022,3,0.361293374263352,0.466507491407221,2,4,1,2,2,1,4,-1,-1,-1,5,0,-1,-1,-1,-1,-1,-1,-1,-1,-1,-1,-1,-1,0,0,0,1,-1,3,5,4,1,2,-1,-1,0,0,0,0,0,0,0,-1,0,-1,-1,NA,-1,-1,-1,-1,-1,-1,-1,1,1,1,1,0,1,-1,-1,-1,-1,-1,-1,-1,-1,-1,NA,NA,NA,NA,NA,NA,NA,NA,NA,NA,NA,NA,NA,NA,0,0,0,1,2,0,25,0,1,NA,0,1,0,NA,NA,NA,0.500009951069211,0,105,NA,NA,NA,-1,-1,-1,NA
"141023_1115",1,3,11,1,0,0,0,0,2,2,2,2,1,1,1,1,2,1,1,3,-1,-1,-1,0,0,0,9,1,-1,-1,-1,-1,-1,-1,-1,-1,-1,-1,-1,-1,-1,-1,100,0,0,0,0,0.289108440414587,2,0.5903758027546,0.426136981894326,4,8,1,4,2,1,4,-1,1,-1,20,0,-1,-1,-1,-1,-1,-1,-1,-1,-1,-1,-1,-1,0,0,0,1,-1,3,5,4,1,2,-1,-1,0,0,0,0,0,0,0,-1,0,-1,-1,NA,-1,-1,-1,-1,-1,-1,-1,1,1,1,1,0,1,-1,-1,-1,-1,-1,-1,-1,-1,-1,NA,NA,NA,NA,NA,NA,NA,NA,NA,NA,NA,NA,NA,NA,0,18,1,1,2,0,0,0,1,NA,0,1,0,NA,NA,NA,0.500064451826999,0,105,NA,NA,NA,-1,-1,-1,NA
"141023_1115",1,3,12,1,0,0,0,0,3,2,2,2,1,1,1,1,2,1,1,3,-1,-1,-1,0,0,0,9,1,-1,-1,-1,-1,-1,-1,-1,-1,-1,-1,-1,-1,-1,-1,100,0,0,0,0,0.695616693094194,1,0.77929649258931,0.302771961457455,6,12,1,6,3,1,4,-1,-1,2,1,5,0,1,3,3,3,2,3,3,0,0,0,3,0,0,0,1,-1,5,4,2,3,1,-1,-1,3,0,0,0,0,0,0,-1,0,-1,-1,NA,-1,-1,-1,-1,-1,-1,-1,1,1,1,1,0,1,-1,-1,-1,-1,-1,-1,-1,-1,-1,NA,NA,NA,NA,NA,NA,NA,NA,NA,NA,NA,NA,NA,NA,0,0,-3,1,2,0,0,0,1,NA,0,1,0,NA,NA,NA,0.500068475609072,0,105,NA,NA,NA,-1,-1,-1,NA
"141023_1115",1,4,1,1,0,0,0,0,3,3,2,1,1,1,1,1,1,1,1,1,-1,-1,-1,0,0,0,9,1,-1,-1,-1,-1,-1,-1,-1,-1,-1,-1,-1,-1,-1,-1,100,0,0,0,0,0.597507179061653,2,0.493499476692406,0.15975579300884,7,4,1,2,3,1,4,-1,-1,1,21,0,-1,-1,-1,-1,-1,-1,-1,-1,-1,-1,-1,-1,0,0,0,1,-1,4,3,1,2,5,-1,-1,2,0,0,0,0,0,0,-1,0,-1,-1,NA,-1,-1,-1,-1,-1,-1,-1,1,1,1,1,0,1,-1,-1,-1,-1,-1,-1,-1,-1,-1,NA,NA,NA,NA,NA,NA,NA,NA,NA,NA,NA,NA,NA,NA,0,20,3,1,2,0,0,NA,1,NA,0,1,0,NA,NA,NA,0.500036008462559,0,105,NA,NA,NA,-1,-1,-1,NA
"141023_1115",1,4,2,1,0,0,0,1,1,3,2,1,1,1,1,1,1,1,1,1,2,2,3,0,0,0,9,1,-1,-1,-1,-1,-1,-1,-1,-1,-1,-1,-1,-1,-1,-1,100,0,0,0,0,0.202913148888812,2,0.560057142544564,0.747167520572975,1,5,2,3,1,1,4,-1,-1,-1,19,0,-1,-1,-1,-1,-1,-1,-1,-1,-1,-1,-1,-1,0,0,0,1,-1,3,5,4,1,2,-1,-1,0,0,0,0,0,0,0,-1,0,-1,-1,NA,-1,-1,-1,-1,-1,-1,-1,1,1,1,1,0,1,-1,-1,-1,-1,-1,-1,-1,-1,-1,NA,NA,NA,NA,NA,NA,NA,NA,NA,NA,NA,NA,NA,NA,0,0,0,1,2,0,15,NA,1,NA,0,1,0,NA,NA,NA,0.500057703509069,0,105,NA,NA,NA,-1,-1,-1,NA
"141023_1115",1,4,3,2,0,0,0,0,2,1,3,2,2,3,2,2,2,3,3,3,-1,-1,-1,0,0,0,5,5,-1,-1,-1,-1,-1,-1,-1,-1,-1,-1,-1,-1,-1,-1,100,0,0,0,0,0.722414841746173,1,0.418563751233073,0.050098585919523,11,3,2,2,5,1,4,-1,2,-1,28,0,-1,-1,-1,-1,-1,-1,-1,-1,-1,-1,-1,-1,0,0,0,1,-1,3,5,4,1,2,-1,-1,0,0,0,0,0,0,0,-1,0,-1,-1,NA,-1,-1,-1,-1,-1,-1,-1,1,1,1,1,0,1,-1,-1,-1,-1,-1,-1,-1,-1,-1,NA,NA,NA,NA,NA,NA,NA,NA,NA,NA,NA,NA,NA,NA,0,0,22,1,2,0,0,NA,1,NA,0,1,0,NA,NA,NA,0.500069885610216,0,105,NA,NA,NA,-1,-1,-1,NA
"141023_1115",1,4,4,2,0,0,0,1,3,1,3,2,2,3,2,2,2,3,3,3,0,0,0,0,0,0,5,5,-1,-1,-1,-1,-1,-1,-1,-1,-1,-1,-1,-1,-1,-1,100,0,0,0,0,0.688356215454804,1,0.79450432015327,0.829312908849359,10,9,2,5,6,1,4,-1,-1,-1,2,3,1,3,3,3,1,2,2,3,0,0,0,2,0,0,0,1,-1,3,5,4,1,2,-1,-1,0,0,0,0,0,0,0,-1,0,-1,-1,NA,-1,-1,-1,-1,-1,-1,-1,1,1,1,1,0,1,-1,-1,-1,-1,-1,-1,-1,-1,-1,NA,NA,NA,NA,NA,NA,NA,NA,NA,NA,NA,NA,NA,NA,0,0,0,1,2,0,27,NA,1,NA,0,1,0,NA,NA,NA,0.500071023786008,0,105,NA,NA,NA,-1,-1,-1,NA
"141023_1115",1,4,5,2,0,0,0,0,1,1,3,2,2,3,2,2,2,3,3,3,-1,-1,-1,0,0,0,5,5,-1,-1,-1,-1,-1,-1,-1,-1,-1,-1,-1,-1,-1,-1,100,0,0,0,0,0.65810939094895,3,0.833251080398099,0.504608575955317,9,10,1,5,4,1,4,2,-1,-1,9,0,-1,-1,-1,-1,-1,-1,-1,-1,-1,-1,-1,-1,0,0,0,1,-1,5,4,2,3,1,-1,-1,3,0,0,0,0,0,0,-1,0,-1,-1,NA,-1,-1,-1,-1,-1,-1,-1,1,1,1,1,0,1,-1,-1,-1,-1,-1,-1,-1,-1,-1,NA,NA,NA,NA,NA,NA,NA,NA,NA,NA,NA,NA,NA,NA,0,29,25,1,2,0,0,NA,1,NA,0,1,0,NA,NA,NA,0.500069094576253,0,105,NA,NA,NA,-1,-1,-1,NA
"141023_1115",1,4,6,1,0,0,0,1,2,3,2,1,1,1,1,1,1,1,1,1,0,0,0,0,0,0,9,1,-1,-1,-1,-1,-1,-1,-1,-1,-1,-1,-1,-1,-1,-1,100,0,0,0,0,0.262059031176408,2,0.659600467728265,0.956336081007652,2,7,2,4,2,1,4,-1,-1,-1,5,0,-1,-1,-1,-1,-1,-1,-1,-1,-1,-1,-1,-1,0,0,0,1,-1,5,4,2,3,1,-1,-1,3,0,0,0,0,0,0,-1,0,-1,-1,NA,-1,-1,-1,-1,-1,-1,-1,1,1,1,1,0,1,-1,-1,-1,-1,-1,-1,-1,-1,-1,NA,NA,NA,NA,NA,NA,NA,NA,NA,NA,NA,NA,NA,NA,0,0,0,1,2,0,27,NA,1,NA,0,1,0,NA,NA,NA,0.500072543086425,0,105,NA,NA,NA,-1,-1,-1,NA
"141023_1115",1,4,7,1,0,0,0,0,1,3,2,1,1,1,1,1,1,1,1,1,-1,-1,-1,0,0,0,9,1,-1,-1,-1,-1,-1,-1,-1,-1,-1,-1,-1,-1,-1,-1,100,0,0,0,0,0.476202231122275,1,0.756077143250069,0.11291873879401,5,8,1,4,1,1,4,1,-1,-1,13,0,-1,-1,-1,-1,-1,-1,-1,-1,-1,-1,-1,-1,0,0,0,1,-1,3,5,4,1,2,-1,-1,0,0,0,0,0,0,0,-1,0,-1,-1,NA,-1,-1,-1,-1,-1,-1,-1,1,1,1,1,0,1,-1,-1,-1,-1,-1,-1,-1,-1,-1,NA,NA,NA,NA,NA,NA,NA,NA,NA,NA,NA,NA,NA,NA,0,0,17,1,2,0,0,NA,1,NA,0,1,0,NA,NA,NA,0.500038856493933,0,105,NA,NA,NA,-1,-1,-1,NA
"141023_1115",1,4,8,2,0,0,0,1,2,1,3,2,2,3,2,2,2,3,3,3,0,0,0,0,0,0,5,5,-1,-1,-1,-1,-1,-1,-1,-1,-1,-1,-1,-1,-1,-1,100,0,0,0,0,0.610935251047339,1,0.942302364363476,0.502788129031094,8,12,1,6,5,1,4,-1,-1,-1,14,0,-1,-1,-1,-1,-1,-1,-1,-1,-1,-1,-1,-1,0,0,0,1,-1,5,4,2,3,1,-1,-1,3,0,0,0,0,0,0,-1,0,-1,-1,NA,-1,-1,-1,-1,-1,-1,-1,1,1,1,1,0,1,-1,-1,-1,-1,-1,-1,-1,-1,-1,NA,NA,NA,NA,NA,NA,NA,NA,NA,NA,NA,NA,NA,NA,0,0,0,1,2,0,26,NA,1,NA,0,1,0,NA,NA,NA,0.500001768196328,0,105,NA,NA,NA,-1,-1,-1,NA
"141023_1115",1,4,9,1,0,0,0,1,3,3,2,1,1,1,1,1,1,1,1,1,2,3,2,0,0,0,9,1,-1,-1,-1,-1,-1,-1,-1,-1,-1,-1,-1,-1,-1,-1,100,0,0,0,0,0.362058077176128,2,0.131436312166712,0.810620177449016,3,1,2,1,3,1,4,-1,-1,-1,19,0,-1,-1,-1,-1,-1,-1,-1,-1,-1,-1,-1,-1,0,0,0,1,-1,4,3,1,2,5,-1,-1,2,0,0,0,0,0,0,-1,0,-1,-1,NA,-1,-1,-1,-1,-1,-1,-1,1,1,1,1,0,1,-1,-1,-1,-1,-1,-1,-1,-1,-1,NA,NA,NA,NA,NA,NA,NA,NA,NA,NA,NA,NA,NA,NA,0,0,0,1,2,0,11,NA,1,NA,0,1,0,NA,NA,NA,0.500074276259204,0,105,NA,NA,NA,-1,-1,-1,NA
"141023_1115",1,4,10,2,0,0,0,1,1,1,3,2,2,3,2,2,2,3,3,3,0,0,0,0,0,0,5,5,-1,-1,-1,-1,-1,-1,-1,-1,-1,-1,-1,-1,-1,-1,100,0,0,0,0,0.375052335846728,3,0.610320675936677,0.322466722839729,4,6,1,3,4,1,4,-1,-1,-1,5,0,-1,-1,-1,-1,-1,-1,-1,-1,-1,-1,-1,-1,0,0,5,1,-1,5,4,2,3,1,-1,-1,3,0,0,0,0,0,0,-1,0,-1,-1,NA,-1,-1,-1,-1,-1,-1,-1,1,1,1,1,0,1,-1,-1,-1,-1,-1,-1,-1,-1,-1,NA,NA,NA,NA,NA,NA,NA,NA,NA,NA,NA,NA,NA,NA,0,0,0,1,2,0,27,NA,1,NA,0,1,0,NA,NA,NA,0.500001052104589,1,105,NA,NA,NA,-1,-1,-1,NA
"141023_1115",1,4,11,2,0,0,0,0,3,1,3,2,2,3,2,2,2,3,3,3,-1,-1,-1,0,0,0,5,5,-1,-1,-1,-1,-1,-1,-1,-1,-1,-1,-1,-1,-1,-1,100,0,0,0,0,0.857090667289258,1,0.924140550160846,0.00693354942227413,12,11,2,6,6,1,4,-1,-1,2,20,0,-1,-1,-1,-1,-1,-1,-1,-1,-1,-1,-1,-1,0,0,0,1,-1,2,1,5,4,3,-1,-1,1,0,0,0,0,0,0,-1,0,-1,-1,NA,-1,-1,-1,-1,-1,-1,-1,1,1,1,1,0,1,-1,-1,-1,-1,-1,-1,-1,-1,-1,NA,NA,NA,NA,NA,NA,NA,NA,NA,NA,NA,NA,NA,NA,0,0,12,1,2,0,0,NA,1,NA,0,1,0,NA,NA,NA,0.500005776657772,0,105,NA,NA,NA,-1,-1,-1,NA
"141023_1115",1,4,12,1,0,0,0,0,2,3,2,1,1,1,1,1,1,1,1,1,-1,-1,-1,0,0,0,9,1,-1,-1,-1,-1,-1,-1,-1,-1,-1,-1,-1,-1,-1,-1,100,0,0,0,0,0.588687897002645,1,0.323716240620109,0.0141368424585726,6,2,1,1,2,1,4,-1,1,-1,1,5,0,1,3,3,3,2,3,3,0,0,0,3,0,0,0,1,-1,2,1,5,4,3,-1,-1,1,0,0,0,0,0,0,-1,0,-1,-1,NA,-1,-1,-1,-1,-1,-1,-1,1,1,1,1,0,1,-1,-1,-1,-1,-1,-1,-1,-1,-1,NA,NA,NA,NA,NA,NA,NA,NA,NA,NA,NA,NA,NA,NA,0,0,14,1,2,0,0,NA,1,NA,0,1,0,NA,NA,NA,0.500016247457832,0,105,NA,NA,NA,-1,-1,-1,NA
"141023_1115",1,5,1,2,0,0,0,0,1,3,2,2,2,3,1,2,2,1,3,3,-1,-1,-1,0,0,0,5,5,-1,-1,-1,-1,-1,-1,-1,-1,-1,-1,-1,-1,-1,-1,100,0,0,0,0,0.425204854656572,3,0.448440816462245,0.228769211670742,6,7,2,4,4,1,4,1,-1,-1,21,0,-1,-1,-1,-1,-1,-1,-1,-1,-1,-1,-1,-1,0,0,0,1,-1,3,5,4,1,2,-1,-1,0,0,0,0,0,0,0,-1,0,-1,-1,NA,-1,-1,-1,-1,-1,-1,-1,1,1,1,1,0,1,-1,-1,-1,-1,-1,-1,-1,-1,-1,NA,NA,NA,NA,NA,NA,NA,NA,NA,NA,NA,NA,NA,NA,0,0,17,1,2,0,0,NA,1,NA,0,1,0,NA,NA,NA,0.500095771098321,0,105,NA,NA,NA,-1,-1,-1,NA
"141023_1115",1,5,2,2,0,0,0,1,2,3,2,2,2,3,1,2,2,1,3,3,0,0,0,0,0,0,5,5,-1,-1,-1,-1,-1,-1,-1,-1,-1,-1,-1,-1,-1,-1,100,0,0,0,0,0.698210767329769,1,0.94480228095539,0.133170012446665,10,12,1,6,5,1,4,-1,-1,-1,19,0,-1,-1,-1,-1,-1,-1,-1,-1,-1,-1,-1,-1,0,0,0,1,-1,3,5,4,1,2,-1,-1,0,0,0,0,0,0,0,-1,0,-1,-1,NA,-1,-1,-1,-1,-1,-1,-1,1,1,1,1,0,1,-1,-1,-1,-1,-1,-1,-1,-1,-1,NA,NA,NA,NA,NA,NA,NA,NA,NA,NA,NA,NA,NA,NA,0,0,0,1,2,0,26,NA,1,NA,0,1,0,NA,NA,NA,0.500023189456539,0,105,NA,NA,NA,-1,-1,-1,NA
"141023_1115",1,5,3,1,0,0,0,0,2,2,1,3,1,2,1,2,1,2,3,2,-1,-1,-1,0,0,0,7,3,-1,-1,-1,-1,-1,-1,-1,-1,-1,-1,-1,-1,-1,-1,100,0,0,0,0,0.0935590761218029,3,0.597911201230209,0.195123962683195,2,8,1,4,2,1,4,-1,2,-1,28,0,-1,-1,-1,-1,-1,-1,-1,-1,-1,-1,-1,-1,0,0,0,1,-1,5,4,2,3,1,-1,-1,3,0,0,0,0,0,0,-1,0,-1,-1,NA,-1,-1,-1,-1,-1,-1,-1,1,1,1,1,0,1,-1,-1,-1,-1,-1,-1,-1,-1,-1,NA,NA,NA,NA,NA,NA,NA,NA,NA,NA,NA,NA,NA,NA,0,27,20,1,2,0,0,NA,1,NA,0,1,0,NA,NA,NA,0.500082180707893,0,105,NA,NA,NA,-1,-1,-1,NA
"141023_1115",1,5,4,1,0,0,0,1,3,2,1,3,1,2,1,2,1,2,3,2,0,0,0,0,0,0,7,3,-1,-1,-1,-1,-1,-1,-1,-1,-1,-1,-1,-1,-1,-1,100,0,0,0,0,0.610884344024064,2,0.355957460289801,0.568641805820466,8,4,1,2,3,1,4,-1,-1,-1,2,3,1,3,3,3,1,2,2,3,0,0,0,2,0,0,0,1,-1,2,1,5,4,3,-1,-1,1,0,0,0,0,0,0,-1,0,-1,-1,NA,-1,-1,-1,-1,-1,-1,-1,1,1,1,1,0,1,-1,-1,-1,-1,-1,-1,-1,-1,-1,NA,NA,NA,NA,NA,NA,NA,NA,NA,NA,NA,NA,NA,NA,0,0,0,1,2,0,23,NA,1,NA,0,1,0,NA,NA,NA,0.500017117259566,0,105,NA,NA,NA,-1,-1,-1,NA
"141023_1115",1,5,5,1,0,0,0,0,3,2,1,3,1,2,1,2,1,2,3,2,-1,-1,-1,0,0,0,7,3,-1,-1,-1,-1,-1,-1,-1,-1,-1,-1,-1,-1,-1,-1,100,0,0,0,0,0.162830424570865,2,0.755069461537092,0.275837856938987,4,11,2,6,3,1,4,-1,-1,1,9,0,-1,-1,-1,-1,-1,-1,-1,-1,-1,-1,-1,-1,0,0,5,1,-1,5,4,2,3,1,-1,-1,3,0,0,0,0,0,0,-1,0,-1,-1,NA,-1,-1,-1,-1,-1,-1,-1,1,1,1,1,0,1,-1,-1,-1,-1,-1,-1,-1,-1,-1,NA,NA,NA,NA,NA,NA,NA,NA,NA,NA,NA,NA,NA,NA,0,0,17,1,2,0,0,NA,1,NA,0,1,0,NA,NA,NA,0.500015998591257,1,105,NA,NA,NA,-1,-1,-1,NA
"141023_1115",1,5,6,2,0,0,0,1,3,3,2,2,2,3,1,2,2,1,3,3,0,0,0,0,0,0,5,5,-1,-1,-1,-1,-1,-1,-1,-1,-1,-1,-1,-1,-1,-1,100,0,0,0,0,0.905061108947294,2,0.426666835055997,0.248494843602411,12,6,1,3,6,1,4,-1,-1,-1,5,5,1,3,3,2,2,1,3,3,0,0,0,3,1,0,0,1,-1,2,1,5,4,3,-1,-1,1,0,0,0,0,0,0,-1,0,-1,-1,NA,-1,-1,-1,-1,-1,-1,-1,1,1,1,1,0,1,-1,-1,-1,-1,-1,-1,-1,-1,-1,NA,NA,NA,NA,NA,NA,NA,NA,NA,NA,NA,NA,NA,NA,0,0,0,1,2,0,27,NA,1,NA,0,1,0,NA,NA,NA,0.500093805794601,0,105,NA,NA,NA,-1,-1,-1,NA
"141023_1115",1,5,7,1,0,0,0,0,1,2,1,3,1,2,1,2,1,2,3,2,-1,-1,-1,0,0,0,7,3,-1,-1,-1,-1,-1,-1,-1,-1,-1,-1,-1,-1,-1,-1,100,0,0,0,0,0.0502925766866154,2,0.666870680016871,0.679494796171549,1,9,2,5,1,1,4,1,-1,-1,13,0,-1,-1,-1,-1,-1,-1,-1,-1,-1,-1,-1,-1,0,0,0,1,-1,3,5,4,1,2,-1,-1,0,0,0,0,0,0,0,-1,0,-1,-1,NA,-1,-1,-1,-1,-1,-1,-1,1,1,1,1,0,1,-1,-1,-1,-1,-1,-1,-1,-1,-1,NA,NA,NA,NA,NA,NA,NA,NA,NA,NA,NA,NA,NA,NA,0,0,23,1,2,0,0,NA,1,NA,0,1,0,NA,NA,NA,0.500084753503224,0,105,NA,NA,NA,-1,-1,-1,NA
"141023_1115",1,5,8,2,0,0,0,1,1,3,2,2,2,3,1,2,2,1,3,3,5,0,0,0,0,0,5,5,-1,-1,-1,-1,-1,-1,-1,-1,-1,-1,-1,-1,-1,-1,100,0,0,0,0,0.624471692193519,2,0.251896499773439,0.714878188313394,9,2,1,1,4,1,4,-1,-1,-1,14,0,-1,-1,-1,-1,-1,-1,-1,-1,-1,-1,-1,-1,0,0,0,1,-1,4,3,1,2,5,-1,-1,2,0,0,0,0,0,0,-1,0,-1,-1,NA,-1,-1,-1,-1,-1,-1,-1,1,1,1,1,0,1,-1,-1,-1,-1,-1,-1,-1,-1,-1,NA,NA,NA,NA,NA,NA,NA,NA,NA,NA,NA,NA,NA,NA,0,0,0,1,2,0,24,NA,1,NA,0,1,0,NA,NA,NA,0.500045597096926,0,105,NA,NA,NA,-1,-1,-1,NA
"141023_1115",1,5,9,1,0,0,0,1,2,2,1,3,1,2,1,2,1,2,3,2,0,0,0,0,0,0,7,3,-1,-1,-1,-1,-1,-1,-1,-1,-1,-1,-1,-1,-1,-1,100,0,0,0,0,0.267336371944908,3,0.188399191102199,0.0794645813663791,5,1,2,1,2,1,4,-1,-1,-1,19,0,-1,-1,-1,-1,-1,-1,-1,-1,-1,-1,-1,-1,0,0,0,1,-1,2,1,5,4,3,-1,-1,1,0,0,0,0,0,0,-1,0,-1,-1,NA,-1,-1,-1,-1,-1,-1,-1,1,1,1,1,0,1,-1,-1,-1,-1,-1,-1,-1,-1,-1,NA,NA,NA,NA,NA,NA,NA,NA,NA,NA,NA,NA,NA,NA,0,0,0,1,2,0,23,NA,1,NA,0,1,0,NA,NA,NA,0.500072907221072,0,105,NA,NA,NA,-1,-1,-1,NA
"141023_1115",1,5,10,1,0,0,0,1,1,2,1,3,1,2,1,2,1,2,3,2,0,0,0,0,0,0,7,3,-1,-1,-1,-1,-1,-1,-1,-1,-1,-1,-1,-1,-1,-1,100,0,0,0,0,0.0998664824757103,1,0.714307124127777,0.570816582800269,3,10,1,5,1,1,4,-1,-1,-1,5,3,1,1,2,3,1,2,3,2,0,0,0,2,1,0,0,1,-1,5,4,2,3,1,-1,-1,3,0,0,0,0,0,0,-1,0,-1,-1,NA,-1,-1,-1,-1,-1,-1,-1,1,1,1,1,0,1,-1,-1,-1,-1,-1,-1,-1,-1,-1,NA,NA,NA,NA,NA,NA,NA,NA,NA,NA,NA,NA,NA,NA,0,0,0,1,2,0,21,NA,1,NA,0,1,0,NA,NA,NA,0.500088287176466,0,105,NA,NA,NA,-1,-1,-1,NA
"141023_1115",1,5,11,2,0,0,0,0,2,3,2,2,2,3,1,2,2,1,3,3,-1,-1,-1,0,0,0,5,5,-1,-1,-1,-1,-1,-1,-1,-1,-1,-1,-1,-1,-1,-1,100,0,0,0,0,0.452440053900909,2,0.291936017243162,0.640055182687964,7,3,2,2,5,1,4,-1,2,-1,20,0,-1,-1,-1,-1,-1,-1,-1,-1,-1,-1,-1,-1,0,0,0,1,-1,2,1,5,4,3,-1,-1,1,0,0,0,0,0,0,-1,0,-1,-1,NA,-1,-1,-1,-1,-1,-1,-1,1,1,1,1,0,1,-1,-1,-1,-1,-1,-1,-1,-1,-1,NA,NA,NA,NA,NA,NA,NA,NA,NA,NA,NA,NA,NA,NA,0,0,9,1,2,0,0,NA,1,NA,0,1,0,NA,NA,NA,0.500058177232909,0,105,NA,NA,NA,-1,-1,-1,NA
"141023_1115",1,5,12,2,0,0,0,0,3,3,2,2,2,3,1,2,2,1,3,3,-1,-1,-1,0,0,0,5,5,-1,-1,-1,-1,-1,-1,-1,-1,-1,-1,-1,-1,-1,-1,100,0,0,0,0,0.800966974255148,1,0.42574859849445,0.452836425720172,11,5,2,3,6,1,4,-1,-1,2,1,5,0,1,3,3,3,2,3,3,0,0,0,3,0,0,0,1,-1,5,4,2,3,1,-1,-1,3,0,0,0,0,0,0,-1,0,-1,-1,NA,-1,-1,-1,-1,-1,-1,-1,1,1,1,1,0,1,-1,-1,-1,-1,-1,-1,-1,-1,-1,NA,NA,NA,NA,NA,NA,NA,NA,NA,NA,NA,NA,NA,NA,0,22,2,1,2,0,0,NA,1,NA,0,1,0,NA,NA,NA,0.500041233244092,0,105,NA,NA,NA,-1,-1,-1,NA
"141023_1115",1,6,1,2,0,0,0,0,3,3,1,2,1,1,2,1,1,3,1,1,-1,-1,-1,0,7,0,9,1,-1,-1,-1,-1,-1,-1,-1,-1,-1,-1,-1,-1,-1,-1,100,0,0,0,0,0.944557099577299,3,0.0041896421481807,0.516645544914829,12,1,2,1,6,1,4,-1,-1,1,21,0,-1,-1,-1,-1,-1,-1,-1,-1,-1,-1,-1,-1,0,0,0,1,-1,4,3,1,2,5,-1,-1,2,0,0,0,0,0,0,-1,0,-1,-1,NA,-1,-1,-1,-1,-1,-1,-1,1,1,1,1,0,1,-1,-1,-1,-1,-1,-1,-1,-1,-1,NA,NA,NA,NA,NA,NA,NA,NA,NA,NA,NA,NA,NA,NA,0,23,12,1,2,0,0,0,1,NA,0,1,0,NA,NA,NA,0.500028140207626,0,105,NA,NA,NA,-1,-1,-1,NA
"141023_1115",1,6,2,1,0,0,0,1,2,3,1,1,2,2,2,2,2,2,2,2,0,0,0,0,0,0,7,3,-1,-1,-1,-1,-1,-1,-1,-1,-1,-1,-1,-1,-1,-1,100,0,0,0,0,0.261673383536597,2,0.268064943732724,0.256469579998623,2,2,1,1,2,1,4,-1,-1,-1,19,0,-1,-1,-1,-1,-1,-1,-1,-1,-1,-1,-1,-1,0,0,0,1,-1,3,5,4,1,2,-1,-1,0,0,0,0,0,0,0,-1,0,-1,-1,NA,-1,-1,-1,-1,-1,-1,-1,1,1,1,1,0,1,-1,-1,-1,-1,-1,-1,-1,-1,-1,NA,NA,NA,NA,NA,NA,NA,NA,NA,NA,NA,NA,NA,NA,0,0,0,1,2,0,24,0,1,NA,0,1,0,NA,NA,NA,0.500036022904159,0,105,NA,NA,NA,-1,-1,-1,NA
"141023_1115",1,6,3,1,0,0,0,0,2,3,1,1,2,2,2,2,2,2,2,2,-1,-1,-1,0,0,0,7,3,-1,-1,-1,-1,-1,-1,-1,-1,-1,-1,-1,-1,-1,-1,100,0,0,0,0,0.471036297022848,2,0.289566833660736,0.356617498843287,6,3,2,2,2,1,4,-1,2,-1,28,0,-1,-1,-1,-1,-1,-1,-1,-1,-1,-1,-1,-1,0,0,0,1,-1,4,3,1,2,5,-1,-1,2,0,0,0,0,0,0,-1,0,-1,-1,NA,-1,-1,-1,-1,-1,-1,-1,1,1,1,1,0,1,-1,-1,-1,-1,-1,-1,-1,-1,-1,NA,NA,NA,NA,NA,NA,NA,NA,NA,NA,NA,NA,NA,NA,0,0,14,1,2,0,0,0,1,NA,0,1,0,NA,NA,NA,0.500058549177301,0,105,NA,NA,NA,-1,-1,-1,NA
"141023_1115",1,6,4,2,0,0,0,1,3,3,1,2,1,1,2,1,1,3,1,1,0,3,3,0,7,0,9,1,-1,-1,-1,-1,-1,-1,-1,-1,-1,-1,-1,-1,-1,-1,100,0,0,0,0,0.897815301501106,2,0.761402405221668,0.798849768842966,11,9,2,5,6,1,4,-1,-1,-1,2,3,1,3,3,3,1,2,2,3,0,0,0,2,0,0,5,1,-1,4,3,1,2,5,-1,-1,2,0,0,0,0,0,0,-1,0,-1,-1,NA,-1,-1,-1,-1,-1,-1,-1,1,1,1,1,0,1,-1,-1,-1,-1,-1,-1,-1,-1,-1,NA,NA,NA,NA,NA,NA,NA,NA,NA,NA,NA,NA,NA,NA,0,0,0,1,2,0,18,0,1,NA,0,1,0,NA,NA,NA,0.500004052664574,1,105,NA,NA,NA,-1,-1,-1,NA
"141023_1115",1,6,5,2,0,0,0,0,1,3,1,2,1,1,2,1,1,3,1,1,-1,-1,-1,0,7,0,9,1,-1,-1,-1,-1,-1,-1,-1,-1,-1,-1,-1,-1,-1,-1,100,0,0,0,0,0.783514674652142,1,0.995237919965404,0.989496786142465,8,12,1,6,4,1,4,2,-1,-1,9,0,-1,-1,-1,-1,-1,-1,-1,-1,-1,-1,-1,-1,0,0,0,1,-1,5,4,2,3,1,-1,-1,3,0,0,0,0,0,0,-1,0,-1,-1,NA,-1,-1,-1,-1,-1,-1,-1,1,1,1,1,0,1,-1,-1,-1,-1,-1,-1,-1,-1,-1,NA,NA,NA,NA,NA,NA,NA,NA,NA,NA,NA,NA,NA,NA,0,0,19,1,2,0,0,0,1,NA,0,1,0,NA,NA,NA,0.500067267830003,0,105,NA,NA,NA,-1,-1,-1,NA
"141023_1115",1,6,6,2,0,0,0,1,2,3,1,2,1,1,2,1,1,3,1,1,0,0,0,0,7,0,9,1,-1,-1,-1,-1,-1,-1,-1,-1,-1,-1,-1,-1,-1,-1,100,0,0,0,0,0.799560086708311,3,0.434783859846547,0.209028237596633,9,6,1,3,5,1,4,-1,-1,-1,5,5,1,3,3,2,2,1,3,3,0,0,0,3,0,0,0,1,-1,2,1,5,4,3,-1,-1,1,0,0,0,0,0,0,-1,0,-1,-1,NA,-1,-1,-1,-1,-1,-1,-1,1,1,1,1,0,1,-1,-1,-1,-1,-1,-1,-1,-1,-1,NA,NA,NA,NA,NA,NA,NA,NA,NA,NA,NA,NA,NA,NA,0,0,0,1,2,0,27,0,1,NA,0,1,0,NA,NA,NA,0.50006410392414,0,105,NA,NA,NA,-1,-1,-1,NA
"141023_1115",1,6,7,1,0,0,0,0,3,3,1,1,2,2,2,2,2,2,2,2,-1,-1,-1,0,0,0,7,3,-1,-1,-1,-1,-1,-1,-1,-1,-1,-1,-1,-1,-1,-1,100,0,0,0,0,0.750467683538081,1,0.9398986301105,0.137589286611224,7,11,2,6,3,1,4,-1,-1,2,13,0,-1,-1,-1,-1,-1,-1,-1,-1,-1,-1,-1,-1,0,0,0,1,-1,2,1,5,4,3,-1,-1,1,0,0,0,0,0,0,-1,0,-1,-1,NA,-1,-1,-1,-1,-1,-1,-1,1,1,1,1,0,1,-1,-1,-1,-1,-1,-1,-1,-1,-1,NA,NA,NA,NA,NA,NA,NA,NA,NA,NA,NA,NA,NA,NA,0,26,9,1,2,0,0,0,1,NA,0,1,0,NA,NA,NA,0.500022161248523,0,105,NA,NA,NA,-1,-1,-1,NA
"141023_1115",1,6,8,2,0,0,0,1,1,3,1,2,1,1,2,1,1,3,1,1,0,7,0,0,7,0,9,1,-1,-1,-1,-1,-1,-1,-1,-1,-1,-1,-1,-1,-1,-1,100,0,0,0,0,0.45196048470771,1,0.521286896672699,0.963720858545844,5,7,2,4,4,1,4,-1,-1,-1,14,0,-1,-1,-1,-1,-1,-1,-1,-1,-1,-1,-1,-1,0,0,0,1,-1,2,1,5,4,3,-1,-1,1,0,0,0,0,0,0,-1,0,-1,-1,NA,-1,-1,-1,-1,-1,-1,-1,1,1,1,1,0,1,-1,-1,-1,-1,-1,-1,-1,-1,-1,NA,NA,NA,NA,NA,NA,NA,NA,NA,NA,NA,NA,NA,NA,0,0,0,1,2,0,-5,10,1,NA,0,1,0,NA,NA,NA,0.500005628161833,0,105,NA,NA,NA,-1,-1,-1,NA
"141023_1115",1,6,9,1,0,0,0,1,3,3,1,1,2,2,2,2,2,2,2,2,0,0,0,0,0,0,7,3,-1,-1,-1,-1,-1,-1,-1,-1,-1,-1,-1,-1,-1,-1,100,0,0,0,0,0.421467367755933,2,0.415315584472993,0.0990087776905898,4,5,2,3,3,1,4,-1,-1,-1,19,0,-1,-1,-1,-1,-1,-1,-1,-1,-1,-1,-1,-1,0,0,0,1,-1,4,3,1,2,5,-1,-1,2,0,0,0,0,0,0,-1,0,-1,-1,NA,-1,-1,-1,-1,-1,-1,-1,1,1,1,1,0,1,-1,-1,-1,-1,-1,-1,-1,-1,-1,NA,NA,NA,NA,NA,NA,NA,NA,NA,NA,NA,NA,NA,NA,0,0,0,1,2,0,26,0,1,NA,0,1,0,NA,NA,NA,0.500010240772604,0,105,NA,NA,NA,-1,-1,-1,NA
"141023_1115",1,6,10,1,0,0,0,1,1,3,1,1,2,2,2,2,2,2,2,2,0,0,0,0,0,0,7,3,-1,-1,-1,-1,-1,-1,-1,-1,-1,-1,-1,-1,-1,-1,100,0,0,0,0,0.0555601148193516,1,0.347276294299996,0.777972349793637,1,4,1,2,1,1,4,-1,-1,-1,5,3,1,1,2,3,1,2,3,2,0,0,0,2,0,0,0,1,-1,4,3,1,2,5,-1,-1,2,0,0,0,0,0,0,-1,0,-1,-1,NA,-1,-1,-1,-1,-1,-1,-1,1,1,1,1,0,1,-1,-1,-1,-1,-1,-1,-1,-1,-1,NA,NA,NA,NA,NA,NA,NA,NA,NA,NA,NA,NA,NA,NA,0,0,0,1,2,0,26,0,1,NA,0,1,0,NA,NA,NA,0.500070418855581,0,105,NA,NA,NA,-1,-1,-1,NA
"141023_1115",1,6,11,1,0,0,0,0,1,3,1,1,2,2,2,2,2,2,2,2,-1,-1,-1,0,0,0,7,3,-1,-1,-1,-1,-1,-1,-1,-1,-1,-1,-1,-1,-1,-1,100,0,0,0,0,0.411545223282438,1,0.602049873956502,0.745815686763178,3,8,1,4,1,1,4,2,-1,-1,20,0,-1,-1,-1,-1,-1,-1,-1,-1,-1,-1,-1,-1,0,0,0,1,-1,2,1,5,4,3,-1,-1,1,0,0,0,0,0,0,-1,0,-1,-1,NA,-1,-1,-1,-1,-1,-1,-1,1,1,1,1,0,1,-1,-1,-1,-1,-1,-1,-1,-1,-1,NA,NA,NA,NA,NA,NA,NA,NA,NA,NA,NA,NA,NA,NA,0,0,17,1,2,0,0,0,1,NA,0,1,0,NA,NA,NA,0.500061757025757,0,105,NA,NA,NA,-1,-1,-1,NA
"141023_1115",1,6,12,2,0,0,0,0,2,3,1,2,1,1,2,1,1,3,1,1,-1,-1,-1,0,7,0,9,1,-1,-1,-1,-1,-1,-1,-1,-1,-1,-1,-1,-1,-1,-1,100,0,0,0,0,0.890224560578458,2,0.827218288009622,0.26887237805355,10,10,1,5,5,1,4,-1,1,-1,1,5,0,1,3,3,3,2,3,3,0,0,0,3,0,0,0,1,-1,4,3,1,2,5,-1,-1,2,0,0,0,0,0,0,-1,0,-1,-1,NA,-1,-1,-1,-1,-1,-1,-1,1,1,1,1,0,1,-1,-1,-1,-1,-1,-1,-1,-1,-1,NA,NA,NA,NA,NA,NA,NA,NA,NA,NA,NA,NA,NA,NA,0,0,15,1,2,0,0,0,1,NA,0,1,0,NA,NA,NA,0.500010254976112,0,105,NA,NA,NA,-1,-1,-1,NA
"141023_1115",1,7,1,2,0,0,0,0,3,3,2,3,1,2,2,1,1,3,2,2,-1,-1,-1,0,0,0,7,3,-1,-1,-1,-1,-1,-1,-1,-1,-1,-1,-1,-1,-1,-1,100,0,0,0,0,0.864766137611478,2,0.570542179313741,0.402900506929914,10,10,1,5,6,1,4,-1,-1,1,21,0,-1,-1,-1,-1,-1,-1,-1,-1,-1,-1,-1,-1,0,0,0,1,-1,3,5,4,1,2,-1,-1,0,0,0,0,0,0,0,-1,0,-1,-1,NA,-1,-1,-1,-1,-1,-1,-1,1,1,1,1,0,1,-1,-1,-1,-1,-1,-1,-1,-1,-1,NA,NA,NA,NA,NA,NA,NA,NA,NA,NA,NA,NA,NA,NA,0,27,16,1,2,0,0,NA,1,NA,0,1,0,NA,NA,NA,0.500017813067473,0,105,NA,NA,NA,-1,-1,-1,NA
"141023_1115",1,7,2,1,0,0,0,1,2,3,1,3,2,3,2,2,2,3,3,3,0,0,0,0,0,0,5,5,-1,-1,-1,-1,-1,-1,-1,-1,-1,-1,-1,-1,-1,-1,100,0,0,0,0,0.360733054746284,2,0.981561587649193,0.206377306583513,6,12,1,6,2,1,4,-1,-1,-1,19,0,-1,-1,-1,-1,-1,-1,-1,-1,-1,-1,-1,-1,0,0,0,1,-1,3,5,4,1,2,-1,-1,0,0,0,0,0,0,0,-1,0,-1,-1,NA,-1,-1,-1,-1,-1,-1,-1,1,1,1,1,0,1,-1,-1,-1,-1,-1,-1,-1,-1,-1,NA,NA,NA,NA,NA,NA,NA,NA,NA,NA,NA,NA,NA,NA,0,0,0,1,2,0,26,NA,1,NA,0,1,0,NA,NA,NA,0.500061382162693,0,105,NA,NA,NA,-1,-1,-1,NA
"141023_1115",1,7,3,1,0,0,0,0,3,3,1,3,2,3,2,2,2,3,3,3,-1,-1,-1,0,0,0,5,5,-1,-1,-1,-1,-1,-1,-1,-1,-1,-1,-1,-1,-1,-1,100,0,0,0,0,0.274552956816998,2,0.3695020891584,0.10560361999348,3,5,2,3,3,1,4,-1,-1,2,28,0,-1,-1,-1,-1,-1,-1,-1,-1,-1,-1,-1,-1,0,0,0,1,-1,5,4,2,3,1,-1,-1,3,0,0,0,0,0,0,-1,0,-1,-1,NA,-1,-1,-1,-1,-1,-1,-1,1,1,1,1,0,1,-1,-1,-1,-1,-1,-1,-1,-1,-1,NA,NA,NA,NA,NA,NA,NA,NA,NA,NA,NA,NA,NA,NA,0,27,11,1,2,0,0,NA,1,NA,0,1,0,NA,NA,NA,0.500004857042853,0,105,NA,NA,NA,-1,-1,-1,NA
"141023_1115",1,7,4,1,0,0,0,1,1,3,1,3,2,3,2,2,2,3,3,3,0,0,0,0,0,0,5,5,-1,-1,-1,-1,-1,-1,-1,-1,-1,-1,-1,-1,-1,-1,100,0,0,0,0,0.323192335350063,1,0.484938742818748,0.946530274090604,5,6,1,3,1,1,4,-1,-1,-1,2,3,1,3,3,3,1,2,2,3,0,0,0,2,0,0,0,1,-1,2,1,5,4,3,-1,-1,1,0,0,0,0,0,0,-1,0,-1,-1,NA,-1,-1,-1,-1,-1,-1,-1,1,1,1,1,0,1,-1,-1,-1,-1,-1,-1,-1,-1,-1,NA,NA,NA,NA,NA,NA,NA,NA,NA,NA,NA,NA,NA,NA,0,0,0,1,2,0,26,NA,1,NA,0,1,0,NA,NA,NA,0.500037632801448,0,105,NA,NA,NA,-1,-1,-1,NA
"141023_1115",1,7,5,1,0,0,0,0,1,3,1,3,2,3,2,2,2,3,3,3,-1,-1,-1,0,0,0,5,5,-1,-1,-1,-1,-1,-1,-1,-1,-1,-1,-1,-1,-1,-1,100,0,0,0,0,0.153156363942268,1,0.50331893866105,0.925159347674418,1,8,1,4,1,1,4,2,-1,-1,9,0,-1,-1,-1,-1,-1,-1,-1,-1,-1,-1,-1,-1,0,0,5,1,-1,4,3,1,2,5,-1,-1,2,0,0,0,0,0,0,-1,0,-1,-1,NA,-1,-1,-1,-1,-1,-1,-1,1,1,1,1,0,1,-1,-1,-1,-1,-1,-1,-1,-1,-1,NA,NA,NA,NA,NA,NA,NA,NA,NA,NA,NA,NA,NA,NA,0,0,22,1,2,0,0,NA,1,NA,0,1,0,NA,NA,NA,0.500001725361823,1,105,NA,NA,NA,-1,-1,-1,NA
"141023_1115",1,7,6,2,0,0,0,1,1,3,2,3,1,2,2,1,1,3,2,2,0,0,0,0,0,0,7,3,-1,-1,-1,-1,-1,-1,-1,-1,-1,-1,-1,-1,-1,-1,100,0,0,0,0,0.560634586289821,2,0.177425746888586,0.8405677079412,8,3,2,2,4,1,4,-1,-1,-1,5,5,1,3,3,2,2,1,3,3,0,0,0,3,0,0,0,1,-1,3,5,4,1,2,-1,-1,0,0,0,0,0,0,0,-1,0,-1,-1,NA,-1,-1,-1,-1,-1,-1,-1,1,1,1,1,0,1,-1,-1,-1,-1,-1,-1,-1,-1,-1,NA,NA,NA,NA,NA,NA,NA,NA,NA,NA,NA,NA,NA,NA,0,0,0,1,2,0,27,NA,1,NA,0,1,0,NA,NA,NA,0.500017729514845,0,105,NA,NA,NA,-1,-1,-1,NA
"141023_1115",1,7,7,2,0,0,0,0,2,3,2,3,1,2,2,1,1,3,2,2,-1,-1,-1,0,0,0,7,3,-1,-1,-1,-1,-1,-1,-1,-1,-1,-1,-1,-1,-1,-1,100,0,0,0,0,0.840451120790304,2,0.485933137818209,0.435369656623979,9,7,2,4,5,1,4,-1,1,-1,13,0,-1,-1,-1,-1,-1,-1,-1,-1,-1,-1,-1,-1,0,0,0,1,-1,4,3,1,2,5,-1,-1,2,0,0,0,0,0,0,-1,0,-1,-1,NA,-1,-1,-1,-1,-1,-1,-1,1,1,1,1,0,1,-1,-1,-1,-1,-1,-1,-1,-1,-1,NA,NA,NA,NA,NA,NA,NA,NA,NA,NA,NA,NA,NA,NA,0,0,19,1,2,0,0,NA,1,NA,0,1,0,NA,NA,NA,0.500042248768146,0,105,NA,NA,NA,-1,-1,-1,NA
"141023_1115",1,7,8,1,0,0,0,1,3,3,1,3,2,3,2,2,2,3,3,3,0,0,0,0,0,0,5,5,-1,-1,-1,-1,-1,-1,-1,-1,-1,-1,-1,-1,-1,-1,100,0,0,0,0,0.450519505632352,3,0.644522278404106,0.913020560943065,7,11,2,6,3,1,4,-1,-1,-1,14,0,-1,-1,-1,-1,-1,-1,-1,-1,-1,-1,-1,-1,0,0,0,1,-1,2,1,5,4,3,-1,-1,1,0,0,0,0,0,0,-1,0,-1,-1,NA,-1,-1,-1,-1,-1,-1,-1,1,1,1,1,0,1,-1,-1,-1,-1,-1,-1,-1,-1,-1,NA,NA,NA,NA,NA,NA,NA,NA,NA,NA,NA,NA,NA,NA,0,0,0,1,2,0,25,NA,1,NA,0,1,0,NA,NA,NA,0.50009077016464,0,105,NA,NA,NA,-1,-1,-1,NA
"141023_1115",1,7,9,2,0,0,0,1,3,3,2,3,1,2,2,1,1,3,2,2,0,3,4,0,0,0,7,3,-1,-1,-1,-1,-1,-1,-1,-1,-1,-1,-1,-1,-1,-1,100,0,0,0,0,0.994527956468299,3,0.306084413223939,0.859781628409299,12,4,1,2,6,1,4,-1,-1,-1,19,0,-1,-1,-1,-1,-1,-1,-1,-1,-1,-1,-1,-1,0,0,0,1,-1,4,3,1,2,5,-1,-1,2,0,0,0,0,0,0,-1,0,-1,-1,NA,-1,-1,-1,-1,-1,-1,-1,1,1,1,1,0,1,-1,-1,-1,-1,-1,-1,-1,-1,-1,NA,NA,NA,NA,NA,NA,NA,NA,NA,NA,NA,NA,NA,NA,0,0,0,1,2,0,20,NA,1,NA,0,1,0,NA,NA,NA,0.500080419932949,0,105,NA,NA,NA,-1,-1,-1,NA
"141023_1115",1,7,10,2,0,0,0,1,2,3,2,3,1,2,2,1,1,3,2,2,0,0,0,0,0,0,7,3,-1,-1,-1,-1,-1,-1,-1,-1,-1,-1,-1,-1,-1,-1,100,0,0,0,0,0.893580228506392,3,0.130032160379939,0.161902950220696,11,2,1,1,5,1,4,-1,-1,-1,5,3,1,1,2,3,1,2,3,2,0,0,0,2,0,0,0,1,-1,4,3,1,2,5,-1,-1,2,0,0,0,0,0,0,-1,0,-1,-1,NA,-1,-1,-1,-1,-1,-1,-1,1,1,1,1,0,1,-1,-1,-1,-1,-1,-1,-1,-1,-1,NA,NA,NA,NA,NA,NA,NA,NA,NA,NA,NA,NA,NA,NA,0,0,0,1,2,0,26,NA,1,NA,0,1,0,NA,NA,NA,0.500058339174911,0,105,NA,NA,NA,-1,-1,-1,NA
"141023_1115",1,7,11,1,0,0,0,0,2,3,1,3,2,3,2,2,2,3,3,3,-1,-1,-1,0,0,0,5,5,-1,-1,-1,-1,-1,-1,-1,-1,-1,-1,-1,-1,-1,-1,100,0,0,0,0,0.163826212363237,2,0.548819971060762,0.0313643627014776,2,9,2,5,2,1,4,-1,2,-1,20,0,-1,-1,-1,-1,-1,-1,-1,-1,-1,-1,-1,-1,0,0,0,1,-1,3,5,4,1,2,-1,-1,0,0,0,0,0,0,0,-1,0,-1,-1,NA,-1,-1,-1,-1,-1,-1,-1,1,1,1,1,0,1,-1,-1,-1,-1,-1,-1,-1,-1,-1,NA,NA,NA,NA,NA,NA,NA,NA,NA,NA,NA,NA,NA,NA,0,0,14,1,2,0,0,NA,1,NA,0,1,0,NA,NA,NA,0.500069723547841,0,105,NA,NA,NA,-1,-1,-1,NA
"141023_1115",1,7,12,2,0,0,0,0,1,3,2,3,1,2,2,1,1,3,2,2,-1,-1,-1,0,0,0,7,3,-1,-1,-1,-1,-1,-1,-1,-1,-1,-1,-1,-1,-1,-1,100,0,0,0,0,0.294512094135635,3,0.124474836105702,0.127472801193349,4,1,2,1,4,1,4,2,-1,-1,1,5,0,1,3,3,3,2,3,3,0,0,0,3,0,0,0,1,-1,5,4,2,3,1,-1,-1,3,0,0,0,0,0,0,-1,0,-1,-1,NA,-1,-1,-1,-1,-1,-1,-1,1,1,1,1,0,1,-1,-1,-1,-1,-1,-1,-1,-1,-1,NA,NA,NA,NA,NA,NA,NA,NA,NA,NA,NA,NA,NA,NA,0,0,22,1,2,0,0,NA,1,NA,0,1,0,NA,NA,NA,0.500059541649678,0,105,NA,NA,NA,-1,-1,-1,NA
"141023_1115",1,8,1,2,0,0,0,0,2,2,2,3,1,2,1,1,2,2,2,3,-1,-1,-1,0,0,0,7,3,-1,-1,-1,-1,-1,-1,-1,-1,-1,-1,-1,-1,-1,-1,100,0,0,0,0,0.750462342868774,3,0.365184700286568,0.323099142090929,10,6,1,3,5,1,4,-1,1,-1,21,0,-1,-1,-1,-1,-1,-1,-1,-1,-1,-1,-1,-1,0,0,0,1,-1,5,4,2,3,1,-1,-1,3,0,0,0,0,0,0,-1,0,-1,-1,NA,-1,-1,-1,-1,-1,-1,-1,1,1,1,1,0,1,-1,-1,-1,-1,-1,-1,-1,-1,-1,NA,NA,NA,NA,NA,NA,NA,NA,NA,NA,NA,NA,NA,NA,0,28,18,1,2,0,0,NA,1,NA,0,1,0,NA,NA,NA,0.500089697609884,0,105,NA,NA,NA,-1,-1,-1,NA
"141023_1115",1,8,2,1,0,0,0,1,3,1,3,2,2,3,2,2,2,3,3,3,0,0,0,0,0,0,5,5,-1,-1,-1,-1,-1,-1,-1,-1,-1,-1,-1,-1,-1,-1,100,0,0,0,0,0.365450554697519,3,0.327281122248285,0.241024815124006,6,4,1,2,3,1,4,-1,-1,-1,19,0,-1,-1,-1,-1,-1,-1,-1,-1,-1,-1,-1,-1,0,0,0,1,-1,2,1,5,4,3,-1,-1,1,0,0,0,0,0,0,-1,0,-1,-1,NA,-1,-1,-1,-1,-1,-1,-1,1,1,1,1,0,1,-1,-1,-1,-1,-1,-1,-1,-1,-1,NA,NA,NA,NA,NA,NA,NA,NA,NA,NA,NA,NA,NA,NA,0,0,0,1,2,0,27,NA,1,NA,0,1,0,NA,NA,NA,0.500024497357441,0,105,NA,NA,NA,-1,-1,-1,NA
"141023_1115",1,8,3,1,0,0,0,0,2,1,3,2,2,3,2,2,2,3,3,3,-1,-1,-1,0,0,0,5,5,-1,-1,-1,-1,-1,-1,-1,-1,-1,-1,-1,-1,-1,-1,100,0,0,0,0,0.136567770101394,3,0.364518187644201,0.904067789159747,2,5,2,3,2,1,4,-1,2,-1,28,0,-1,-1,-1,-1,-1,-1,-1,-1,-1,-1,-1,-1,0,0,0,1,-1,4,3,1,2,5,-1,-1,2,0,0,0,0,0,0,-1,0,-1,-1,NA,-1,-1,-1,-1,-1,-1,-1,1,1,1,1,0,1,-1,-1,-1,-1,-1,-1,-1,-1,-1,NA,NA,NA,NA,NA,NA,NA,NA,NA,NA,NA,NA,NA,NA,0,0,11,1,2,0,0,NA,1,NA,0,1,0,NA,NA,NA,0.500017887156931,0,105,NA,NA,NA,-1,-1,-1,NA
"141023_1115",1,8,4,2,0,0,0,1,1,2,2,3,1,2,1,1,2,2,2,3,0,0,0,0,0,0,7,3,-1,-1,-1,-1,-1,-1,-1,-1,-1,-1,-1,-1,-1,-1,100,0,0,0,0,0.631146505303283,2,0.741571052810909,0.334316640782317,7,11,2,6,4,1,4,-1,-1,-1,2,3,1,3,3,3,1,2,2,3,0,0,0,2,0,0,0,1,-1,5,4,2,3,1,-1,-1,3,0,0,0,0,0,0,-1,0,-1,-1,NA,-1,-1,-1,-1,-1,-1,-1,1,1,1,1,0,1,-1,-1,-1,-1,-1,-1,-1,-1,-1,NA,NA,NA,NA,NA,NA,NA,NA,NA,NA,NA,NA,NA,NA,0,0,0,1,2,0,26,NA,1,NA,0,1,0,NA,NA,NA,0.500025536538486,0,105,NA,NA,NA,-1,-1,-1,NA
"141023_1115",1,8,5,2,0,0,0,0,3,2,2,3,1,2,1,1,2,2,2,3,-1,-1,-1,0,0,0,7,3,-1,-1,-1,-1,-1,-1,-1,-1,-1,-1,-1,-1,-1,-1,100,0,0,0,0,0.855778961840914,1,0.0205965954906291,0.439767740871649,11,1,2,1,6,1,4,-1,-1,2,9,0,-1,-1,-1,-1,-1,-1,-1,-1,-1,-1,-1,-1,0,0,0,1,-1,5,4,2,3,1,-1,-1,3,0,0,0,0,0,0,-1,0,-1,-1,NA,-1,-1,-1,-1,-1,-1,-1,1,1,1,1,0,1,-1,-1,-1,-1,-1,-1,-1,-1,-1,NA,NA,NA,NA,NA,NA,NA,NA,NA,NA,NA,NA,NA,NA,0,0,14,1,2,0,0,NA,1,NA,0,1,0,NA,NA,NA,0.500098100840346,0,105,NA,NA,NA,-1,-1,-1,NA
"141023_1115",1,8,6,2,0,0,0,1,2,2,2,3,1,2,1,1,2,2,2,3,0,0,0,0,0,0,7,3,-1,-1,-1,-1,-1,-1,-1,-1,-1,-1,-1,-1,-1,-1,100,0,0,0,0,0.702259646589989,3,0.659257716340598,0.6673324078635,9,10,1,5,5,1,4,-1,-1,-1,5,5,1,3,3,2,2,1,3,3,0,0,0,3,0,0,0,1,-1,5,4,2,3,1,-1,-1,3,0,0,0,0,0,0,-1,0,-1,-1,NA,-1,-1,-1,-1,-1,-1,-1,1,1,1,1,0,1,-1,-1,-1,-1,-1,-1,-1,-1,-1,NA,NA,NA,NA,NA,NA,NA,NA,NA,NA,NA,NA,NA,NA,0,0,0,1,2,0,27,NA,1,NA,0,1,0,NA,NA,NA,0.500064492827917,0,105,NA,NA,NA,-1,-1,-1,NA
"141023_1115",1,8,7,2,0,0,0,0,1,2,2,3,1,2,1,1,2,2,2,3,-1,-1,-1,0,0,0,7,3,-1,-1,-1,-1,-1,-1,-1,-1,-1,-1,-1,-1,-1,-1,100,0,0,0,0,0.688018070854255,2,0.104886560749675,0.165061466938379,8,3,2,2,4,1,4,1,-1,-1,13,0,-1,-1,-1,-1,-1,-1,-1,-1,-1,-1,-1,-1,0,0,0,1,-1,3,5,4,1,2,-1,-1,0,0,0,0,0,0,0,-1,0,-1,-1,NA,-1,-1,-1,-1,-1,-1,-1,1,1,1,1,0,1,-1,-1,-1,-1,-1,-1,-1,-1,-1,NA,NA,NA,NA,NA,NA,NA,NA,NA,NA,NA,NA,NA,NA,0,0,23,1,2,0,0,NA,1,NA,0,1,0,NA,NA,NA,0.500019805567069,0,105,NA,NA,NA,-1,-1,-1,NA
"141023_1115",1,8,8,1,0,0,0,1,1,1,3,2,2,3,2,2,2,3,3,3,0,0,0,0,0,0,5,5,-1,-1,-1,-1,-1,-1,-1,-1,-1,-1,-1,-1,-1,-1,100,0,0,0,0,0.176420829806673,3,0.775954798225292,0.145810147349634,3,12,1,6,1,1,4,-1,-1,-1,14,0,-1,-1,-1,-1,-1,-1,-1,-1,-1,-1,-1,-1,0,0,0,1,-1,2,1,5,4,3,-1,-1,1,0,0,0,0,0,0,-1,0,-1,-1,NA,-1,-1,-1,-1,-1,-1,-1,1,1,1,1,0,1,-1,-1,-1,-1,-1,-1,-1,-1,-1,NA,NA,NA,NA,NA,NA,NA,NA,NA,NA,NA,NA,NA,NA,0,0,0,1,2,0,26,NA,1,NA,0,1,0,NA,NA,NA,0.500037704772613,0,105,NA,NA,NA,-1,-1,-1,NA
"141023_1115",1,8,9,1,0,0,0,1,2,1,3,2,2,3,2,2,2,3,3,3,0,0,0,0,0,0,5,5,-1,-1,-1,-1,-1,-1,-1,-1,-1,-1,-1,-1,-1,-1,100,0,0,0,0,0.334973702828853,2,0.584684592943957,0.457179736093236,4,9,2,5,2,1,4,-1,-1,-1,19,0,-1,-1,-1,-1,-1,-1,-1,-1,-1,-1,-1,-1,0,0,5,1,-1,5,4,2,3,1,-1,-1,3,0,0,0,0,0,0,-1,0,-1,-1,NA,-1,-1,-1,-1,-1,-1,-1,1,1,1,1,0,1,-1,-1,-1,-1,-1,-1,-1,-1,-1,NA,NA,NA,NA,NA,NA,NA,NA,NA,NA,NA,NA,NA,NA,0,0,0,1,2,0,27,NA,1,NA,0,1,0,NA,NA,NA,0.5000166980411,1,105,NA,NA,NA,-1,-1,-1,NA
"141023_1115",1,8,10,2,0,0,0,1,3,2,2,3,1,2,1,1,2,2,2,3,0,0,0,0,0,0,7,3,-1,-1,-1,-1,-1,-1,-1,-1,-1,-1,-1,-1,-1,-1,100,0,0,0,0,0.984970944926595,3,0.531191432164605,0.232964866437467,12,8,1,4,6,1,4,-1,-1,-1,5,3,1,1,2,3,1,2,3,2,0,0,0,2,0,0,0,1,-1,4,3,1,2,5,-1,-1,2,0,0,0,0,0,0,-1,0,-1,-1,NA,-1,-1,-1,-1,-1,-1,-1,1,1,1,1,0,1,-1,-1,-1,-1,-1,-1,-1,-1,-1,NA,NA,NA,NA,NA,NA,NA,NA,NA,NA,NA,NA,NA,NA,0,0,0,1,2,0,26,NA,1,NA,0,1,0,NA,NA,NA,0.500049610879016,0,105,NA,NA,NA,-1,-1,-1,NA
"141023_1115",1,8,11,1,0,0,0,0,1,1,3,2,2,3,2,2,2,3,3,3,-1,-1,-1,0,0,0,5,5,-1,-1,-1,-1,-1,-1,-1,-1,-1,-1,-1,-1,-1,-1,100,0,0,0,0,0.0770116602429243,1,0.477293135354897,0.881331162937605,1,7,2,4,1,1,4,2,-1,-1,20,0,-1,-1,-1,-1,-1,-1,-1,-1,-1,-1,-1,-1,0,0,0,1,-1,5,4,2,3,1,-1,-1,3,0,0,0,0,0,0,-1,0,-1,-1,NA,-1,-1,-1,-1,-1,-1,-1,1,1,1,1,0,1,-1,-1,-1,-1,-1,-1,-1,-1,-1,NA,NA,NA,NA,NA,NA,NA,NA,NA,NA,NA,NA,NA,NA,0,18,15,1,2,0,0,NA,1,NA,0,1,0,NA,NA,NA,0.500023363151831,0,105,NA,NA,NA,-1,-1,-1,NA
"141023_1115",1,8,12,1,0,0,0,0,3,1,3,2,2,3,2,2,2,3,3,3,-1,-1,-1,0,0,0,5,5,-1,-1,-1,-1,-1,-1,-1,-1,-1,-1,-1,-1,-1,-1,100,0,0,0,0,0.348319037048295,1,0.0790143167036652,0.29446534267369,5,2,1,1,3,1,4,-1,-1,2,1,5,0,1,3,3,3,2,3,3,0,0,0,3,0,0,0,1,-1,2,1,5,4,3,-1,-1,1,0,0,0,0,0,0,-1,0,-1,-1,NA,-1,-1,-1,-1,-1,-1,-1,1,1,1,1,0,1,-1,-1,-1,-1,-1,-1,-1,-1,-1,NA,NA,NA,NA,NA,NA,NA,NA,NA,NA,NA,NA,NA,NA,0,0,6,1,2,0,0,NA,1,NA,0,1,0,NA,NA,NA,0.500040503933532,0,105,NA,NA,NA,-1,-1,-1,NA
"141023_1115",1,9,1,1,0,0,0,0,1,3,2,3,2,3,2,2,2,3,3,3,-1,-1,-1,0,0,0,5,5,-1,-1,-1,-1,-1,-1,-1,-1,-1,-1,-1,-1,-1,-1,100,0,0,0,0,0.0727239349264297,2,0.292094541849612,0.363441269082688,1,4,1,2,1,1,4,2,-1,-1,21,0,-1,-1,-1,-1,-1,-1,-1,-1,-1,-1,-1,-1,0,0,0,1,-1,2,1,5,4,3,-1,-1,1,0,0,0,0,0,0,-1,0,-1,-1,NA,-1,-1,-1,-1,-1,-1,-1,1,1,1,1,0,1,-1,-1,-1,-1,-1,-1,-1,-1,-1,NA,NA,NA,NA,NA,NA,NA,NA,NA,NA,NA,NA,NA,NA,0,0,19,1,2,0,0,NA,1,NA,0,1,0,NA,NA,NA,0.500077030652006,0,105,NA,NA,NA,-1,-1,-1,NA
"141023_1115",1,9,2,2,0,0,0,1,2,3,1,2,1,1,2,1,1,3,1,1,0,3,4,0,3,3,9,1,-1,-1,-1,-1,-1,-1,-1,-1,-1,-1,-1,-1,-1,-1,100,0,0,0,0,0.767247484888531,3,0.51971684746431,0.0673635313601063,10,7,2,4,5,1,4,-1,-1,-1,19,0,-1,-1,-1,-1,-1,-1,-1,-1,-1,-1,-1,-1,0,0,0,1,-1,2,1,5,4,3,-1,-1,1,0,0,0,0,0,0,-1,0,-1,-1,NA,-1,-1,-1,-1,-1,-1,-1,1,1,1,1,0,1,-1,-1,-1,-1,-1,-1,-1,-1,-1,NA,NA,NA,NA,NA,NA,NA,NA,NA,NA,NA,NA,NA,NA,0,0,0,1,2,0,20,NA,1,NA,0,1,0,NA,NA,NA,0.500023435296641,0,105,NA,NA,NA,-1,-1,-1,NA
"141023_1115",1,9,3,1,0,0,0,0,2,3,2,3,2,3,2,2,2,3,3,3,-1,-1,-1,0,0,0,5,5,-1,-1,-1,-1,-1,-1,-1,-1,-1,-1,-1,-1,-1,-1,100,0,0,0,0,0.374067150696212,2,0.49059166223304,0.626603035548051,3,6,1,3,2,1,4,-1,2,-1,28,0,-1,-1,-1,-1,-1,-1,-1,-1,-1,-1,-1,-1,0,0,0,1,-1,5,4,2,3,1,-1,-1,3,0,0,0,0,0,0,-1,0,-1,-1,NA,-1,-1,-1,-1,-1,-1,-1,1,1,1,1,0,1,-1,-1,-1,-1,-1,-1,-1,-1,-1,NA,NA,NA,NA,NA,NA,NA,NA,NA,NA,NA,NA,NA,NA,0,0,17,1,2,0,0,NA,1,NA,0,1,0,NA,NA,NA,0.500064624468966,0,105,NA,NA,NA,-1,-1,-1,NA
"141023_1115",1,9,4,1,0,0,0,1,2,3,2,3,2,3,2,2,2,3,3,3,0,0,0,0,0,0,5,5,-1,-1,-1,-1,-1,-1,-1,-1,-1,-1,-1,-1,-1,-1,100,0,0,0,0,0.567891082990864,2,0.655175295497838,0.485521470888295,5,10,1,5,2,1,4,-1,-1,-1,2,3,1,3,3,3,1,2,2,3,0,0,0,2,0,0,0,1,-1,2,1,5,4,3,-1,-1,1,0,0,0,0,0,0,-1,0,-1,-1,NA,-1,-1,-1,-1,-1,-1,-1,1,1,1,1,0,1,-1,-1,-1,-1,-1,-1,-1,-1,-1,NA,NA,NA,NA,NA,NA,NA,NA,NA,NA,NA,NA,NA,NA,0,0,0,1,2,0,27,NA,1,NA,0,1,0,NA,NA,NA,0.500029934970071,0,105,NA,NA,NA,-1,-1,-1,NA
"141023_1115",1,9,5,2,0,0,0,0,1,3,1,2,1,1,2,1,1,3,1,1,-1,-1,-1,0,3,3,9,1,-1,-1,-1,-1,-1,-1,-1,-1,-1,-1,-1,-1,-1,-1,100,0,0,0,0,0.57562239075807,1,0.271174308504525,0.100436206953803,6,3,2,2,4,1,4,2,-1,-1,9,9,0,1,3,2,1,3,1,1,0,3,3,1,1,0,0,1,-1,2,1,5,4,3,-1,-1,1,0,0,0,0,0,0,-1,0,-1,-1,NA,-1,-1,-1,-1,-1,-1,-1,1,1,1,1,0,1,-1,-1,-1,-1,-1,-1,-1,-1,-1,NA,NA,NA,NA,NA,NA,NA,NA,NA,NA,NA,NA,NA,NA,0,0,23,1,2,0,0,NA,1,NA,0,1,0,NA,NA,NA,0.500052772530752,0,105,NA,NA,NA,-1,-1,-1,NA
"141023_1115",1,9,6,1,0,0,0,1,1,3,2,3,2,3,2,2,2,3,3,3,0,0,0,0,0,0,5,5,-1,-1,-1,-1,-1,-1,-1,-1,-1,-1,-1,-1,-1,-1,100,0,0,0,0,0.128478521540984,2,0.155148189587122,0.874331893340839,2,2,1,1,1,1,4,-1,-1,-1,5,5,1,3,3,2,2,1,3,3,0,0,0,3,0,0,5,1,-1,5,4,2,3,1,-1,-1,3,0,0,0,0,0,0,-1,0,-1,-1,NA,-1,-1,-1,-1,-1,-1,-1,1,1,1,1,0,1,-1,-1,-1,-1,-1,-1,-1,-1,-1,NA,NA,NA,NA,NA,NA,NA,NA,NA,NA,NA,NA,NA,NA,0,0,0,1,2,0,27,NA,1,NA,0,1,0,NA,NA,NA,0.500011338781943,1,105,NA,NA,NA,-1,-1,-1,NA
"141023_1115",1,9,7,2,0,0,0,0,3,3,1,2,1,1,2,1,1,3,1,1,-1,-1,-1,0,3,3,9,1,-1,-1,-1,-1,-1,-1,-1,-1,-1,-1,-1,-1,-1,-1,100,0,0,0,0,0.92602336775792,3,0.925905159640082,0.333191828491721,11,12,1,6,6,1,4,-1,-1,1,13,0,-1,-1,-1,-1,-1,-1,-1,-1,-1,-1,-1,-1,0,0,0,1,-1,2,1,5,4,3,-1,-1,1,0,0,0,0,0,0,-1,0,-1,-1,NA,-1,-1,-1,-1,-1,-1,-1,1,1,1,1,0,1,-1,-1,-1,-1,-1,-1,-1,-1,-1,NA,NA,NA,NA,NA,NA,NA,NA,NA,NA,NA,NA,NA,NA,0,27,16,1,2,0,0,NA,1,NA,0,1,0,NA,NA,NA,0.500062235225394,0,105,NA,NA,NA,-1,-1,-1,NA
"141023_1115",1,9,8,2,0,0,0,1,3,3,1,2,1,1,2,1,1,3,1,1,0,4,3,0,3,3,9,1,-1,-1,-1,-1,-1,-1,-1,-1,-1,-1,-1,-1,-1,-1,100,0,0,0,0,0.946601751235594,2,0.0734310197054553,0.525916191528512,12,1,2,1,6,1,4,-1,-1,-1,14,0,-1,-1,-1,-1,-1,-1,-1,-1,-1,-1,-1,-1,0,0,0,1,-1,3,5,4,1,2,-1,-1,0,0,0,0,0,0,0,-1,0,-1,-1,NA,-1,-1,-1,-1,-1,-1,-1,1,1,1,1,0,1,-1,-1,-1,-1,-1,-1,-1,-1,-1,NA,NA,NA,NA,NA,NA,NA,NA,NA,NA,NA,NA,NA,NA,0,0,0,1,2,0,8,NA,1,NA,0,1,0,NA,NA,NA,0.50007906911293,0,105,NA,NA,NA,-1,-1,-1,NA
"141023_1115",1,9,9,2,0,0,0,1,1,3,1,2,1,1,2,1,1,3,1,1,0,3,3,0,3,3,9,1,-1,-1,-1,-1,-1,-1,-1,-1,-1,-1,-1,-1,-1,-1,100,0,0,0,0,0.742281544367914,1,0.535633016627111,0.721657268107709,8,8,1,4,4,1,4,-1,-1,-1,19,0,-1,-1,-1,-1,-1,-1,-1,-1,-1,-1,-1,-1,0,0,0,1,-1,2,1,5,4,3,-1,-1,1,0,0,0,0,0,0,-1,0,-1,-1,NA,-1,-1,-1,-1,-1,-1,-1,1,1,1,1,0,1,-1,-1,-1,-1,-1,-1,-1,-1,-1,NA,NA,NA,NA,NA,NA,NA,NA,NA,NA,NA,NA,NA,NA,0,0,0,1,2,0,14,NA,1,NA,0,1,0,NA,NA,NA,0.500080460027177,0,105,NA,NA,NA,-1,-1,-1,NA
"141023_1115",1,9,10,1,0,0,0,1,3,3,2,3,2,3,2,2,2,3,3,3,0,0,0,0,0,0,5,5,-1,-1,-1,-1,-1,-1,-1,-1,-1,-1,-1,-1,-1,-1,100,0,0,0,0,0.709081199816,3,0.488036690972762,0.574257751728528,7,5,2,3,3,1,4,-1,-1,-1,5,3,1,1,2,3,1,2,3,2,0,0,0,2,0,0,0,1,-1,5,4,2,3,1,-1,-1,3,0,0,0,0,0,0,-1,0,-1,-1,NA,-1,-1,-1,-1,-1,-1,-1,1,1,1,1,0,1,-1,-1,-1,-1,-1,-1,-1,-1,-1,NA,NA,NA,NA,NA,NA,NA,NA,NA,NA,NA,NA,NA,NA,0,0,0,1,2,0,25,NA,1,NA,0,1,0,NA,NA,NA,0.500077251925402,0,105,NA,NA,NA,-1,-1,-1,NA
"141023_1115",1,9,11,1,0,0,0,0,3,3,2,3,2,3,2,2,2,3,3,3,-1,-1,-1,0,0,0,5,5,-1,-1,-1,-1,-1,-1,-1,-1,-1,-1,-1,-1,-1,-1,100,0,0,0,0,0.550033301371165,2,0.916767655367389,0.717964246737754,4,11,2,6,3,1,4,-1,-1,2,20,0,-1,-1,-1,-1,-1,-1,-1,-1,-1,-1,-1,-1,0,0,0,1,-1,5,4,2,3,1,-1,-1,3,0,0,0,0,0,0,-1,0,-1,-1,NA,-1,-1,-1,-1,-1,-1,-1,1,1,1,1,0,1,-1,-1,-1,-1,-1,-1,-1,-1,-1,NA,NA,NA,NA,NA,NA,NA,NA,NA,NA,NA,NA,NA,NA,0,23,8,1,2,0,0,NA,1,NA,0,1,0,NA,NA,NA,0.500040218641535,0,105,NA,NA,NA,-1,-1,-1,NA
"141023_1115",1,9,12,2,0,0,0,0,2,3,1,2,1,1,2,1,1,3,1,1,-1,-1,-1,0,3,3,9,1,-1,-1,-1,-1,-1,-1,-1,-1,-1,-1,-1,-1,-1,-1,100,0,0,0,0,0.765800238012243,3,0.644360433167015,0.179959199009444,9,9,2,5,5,1,4,-1,1,-1,1,5,0,1,3,3,3,2,3,3,0,0,0,3,0,0,0,1,-1,2,1,5,4,3,-1,-1,1,0,0,0,0,0,0,-1,0,-1,-1,NA,-1,-1,-1,-1,-1,-1,-1,1,1,1,1,0,1,-1,-1,-1,-1,-1,-1,-1,-1,-1,NA,NA,NA,NA,NA,NA,NA,NA,NA,NA,NA,NA,NA,NA,0,0,19,1,2,0,0,NA,1,NA,0,1,0,NA,NA,NA,0.50005416825989,0,105,NA,NA,NA,-1,-1,-1,NA
"141023_1115",1,10,1,2,0,0,0,0,2,2,2,1,1,1,1,1,2,1,1,2,-1,-1,-1,2,2,3,9,1,-1,-1,-1,-1,-1,-1,-1,-1,-1,-1,-1,-1,-1,-1,100,0,0,0,0,0.725049439689633,2,0.819136072797298,0.625920661085248,9,8,1,4,5,1,4,-1,1,-1,21,0,-1,-1,-1,-1,-1,-1,-1,-1,-1,-1,-1,-1,0,0,0,1,-1,5,4,2,3,1,-1,-1,3,0,0,0,0,0,0,-1,0,-1,-1,NA,-1,-1,-1,-1,-1,-1,-1,1,1,1,1,0,1,-1,-1,-1,-1,-1,-1,-1,-1,-1,NA,NA,NA,NA,NA,NA,NA,NA,NA,NA,NA,NA,NA,NA,0,26,19,1,2,0,0,NA,1,NA,0,1,0,NA,NA,NA,0.500034251108782,0,105,NA,NA,NA,-1,-1,-1,NA
"141023_1115",1,10,2,1,0,0,0,1,1,1,2,2,2,3,2,2,2,3,3,3,0,0,0,0,0,0,5,5,-1,-1,-1,-1,-1,-1,-1,-1,-1,-1,-1,-1,-1,-1,100,0,0,0,0,0.0771063440838393,2,0.905932863664782,0.0594396950022502,2,11,2,6,1,1,4,-1,-1,-1,19,0,-1,-1,-1,-1,-1,-1,-1,-1,-1,-1,-1,-1,0,0,0,1,-1,3,5,4,1,2,-1,-1,0,0,0,0,0,0,0,-1,0,-1,-1,NA,-1,-1,-1,-1,-1,-1,-1,1,1,1,1,0,1,-1,-1,-1,-1,-1,-1,-1,-1,-1,NA,NA,NA,NA,NA,NA,NA,NA,NA,NA,NA,NA,NA,NA,0,0,0,1,2,0,26,NA,1,NA,0,1,0,NA,NA,NA,0.500044821121285,0,105,NA,NA,NA,-1,-1,-1,NA
"141023_1115",1,10,3,2,0,0,0,0,3,2,2,1,1,1,1,1,2,1,1,2,-1,-1,-1,2,2,3,9,1,-1,-1,-1,-1,-1,-1,-1,-1,-1,-1,-1,-1,-1,-1,100,0,0,0,0,0.80366714056752,3,0.120906592868691,0.321469668914317,10,3,2,2,6,1,4,-1,-1,2,28,0,-1,-1,-1,-1,-1,-1,-1,-1,-1,-1,-1,-1,0,0,0,1,-1,3,5,4,1,2,-1,-1,0,0,0,0,0,0,0,-1,0,-1,-1,NA,-1,-1,-1,-1,-1,-1,-1,1,1,1,1,0,1,-1,-1,-1,-1,-1,-1,-1,-1,-1,NA,NA,NA,NA,NA,NA,NA,NA,NA,NA,NA,NA,NA,NA,0,0,17,1,2,0,0,NA,1,NA,0,1,0,NA,NA,NA,0.500038401737129,0,105,NA,NA,NA,-1,-1,-1,NA
"141023_1115",1,10,4,1,0,0,0,1,3,1,2,2,2,3,2,2,2,3,3,3,0,0,0,0,0,0,5,5,-1,-1,-1,-1,-1,-1,-1,-1,-1,-1,-1,-1,-1,-1,100,0,0,0,0,0.434499073044629,1,0.841434222106558,0.926325017086382,4,9,2,5,3,1,4,-1,-1,-1,2,3,1,3,3,3,1,2,2,3,0,0,0,2,0,0,0,1,-1,3,5,4,1,2,-1,-1,0,0,0,0,0,0,0,-1,0,-1,-1,NA,-1,-1,-1,-1,-1,-1,-1,1,1,1,1,0,1,-1,-1,-1,-1,-1,-1,-1,-1,-1,NA,NA,NA,NA,NA,NA,NA,NA,NA,NA,NA,NA,NA,NA,0,0,0,1,2,0,27,NA,1,NA,0,1,0,NA,NA,NA,0.500092901348366,0,105,NA,NA,NA,-1,-1,-1,NA
"141023_1115",1,10,5,1,0,0,0,0,1,1,2,2,2,3,2,2,2,3,3,3,-1,-1,-1,0,0,0,5,5,-1,-1,-1,-1,-1,-1,-1,-1,-1,-1,-1,-1,-1,-1,100,0,0,0,0,0.0136396139923668,3,0.8485508597682,0.555740655192985,1,10,1,5,1,1,4,2,-1,-1,9,9,0,1,3,2,1,3,1,1,0,3,3,1,0,0,0,1,-1,5,4,2,3,1,-1,-1,3,0,0,0,0,0,0,-1,0,-1,-1,NA,-1,-1,-1,-1,-1,-1,-1,1,1,1,1,0,1,-1,-1,-1,-1,-1,-1,-1,-1,-1,NA,NA,NA,NA,NA,NA,NA,NA,NA,NA,NA,NA,NA,NA,0,25,23,1,2,0,0,NA,1,NA,0,1,0,NA,NA,NA,0.500014839242964,0,105,NA,NA,NA,-1,-1,-1,NA
"141023_1115",1,10,6,2,0,0,0,1,3,2,2,1,1,1,1,1,2,1,1,2,0,0,0,2,2,3,9,1,-1,-1,-1,-1,-1,-1,-1,-1,-1,-1,-1,-1,-1,-1,100,0,0,0,0,0.929619855214665,2,0.18457478386563,0.170419761990392,12,5,2,3,6,1,4,-1,-1,-1,5,5,1,3,3,2,2,1,3,3,0,0,0,3,0,0,0,1,-1,2,1,5,4,3,-1,-1,1,0,0,0,0,0,0,-1,0,-1,-1,NA,-1,-1,-1,-1,-1,-1,-1,1,1,1,1,0,1,-1,-1,-1,-1,-1,-1,-1,-1,-1,NA,NA,NA,NA,NA,NA,NA,NA,NA,NA,NA,NA,NA,NA,0,0,0,1,2,0,27,NA,1,NA,0,1,0,NA,NA,NA,0.500030789037436,0,105,NA,NA,NA,-1,-1,-1,NA
"141023_1115",1,10,7,1,0,0,0,0,3,1,2,2,2,3,2,2,2,3,3,3,-1,-1,-1,0,0,0,5,5,-1,-1,-1,-1,-1,-1,-1,-1,-1,-1,-1,-1,-1,-1,100,0,0,0,0,0.513523839653248,1,0.280094945002392,0.702756848513501,7,7,2,4,3,1,4,-1,-1,2,13,0,-1,-1,-1,-1,-1,-1,-1,-1,-1,-1,-1,-1,0,0,0,1,-1,4,3,1,2,5,-1,-1,2,0,0,0,0,0,0,-1,0,-1,-1,NA,-1,-1,-1,-1,-1,-1,-1,1,1,1,1,0,1,-1,-1,-1,-1,-1,-1,-1,-1,-1,NA,NA,NA,NA,NA,NA,NA,NA,NA,NA,NA,NA,NA,NA,0,0,11,1,2,0,0,NA,1,NA,0,1,0,NA,NA,NA,0.500076269190701,0,105,NA,NA,NA,-1,-1,-1,NA
"141023_1115",1,10,8,1,0,0,0,1,2,1,2,2,2,3,2,2,2,3,3,3,0,0,0,0,0,0,5,5,-1,-1,-1,-1,-1,-1,-1,-1,-1,-1,-1,-1,-1,-1,100,0,0,0,0,0.240992369708136,2,0.0315650338454009,0.130931731374437,3,2,1,1,2,1,4,-1,-1,-1,14,0,-1,-1,-1,-1,-1,-1,-1,-1,-1,-1,-1,-1,0,0,0,1,-1,2,1,5,4,3,-1,-1,1,0,0,0,0,0,0,-1,0,-1,-1,NA,-1,-1,-1,-1,-1,-1,-1,1,1,1,1,0,1,-1,-1,-1,-1,-1,-1,-1,-1,-1,NA,NA,NA,NA,NA,NA,NA,NA,NA,NA,NA,NA,NA,NA,0,0,0,1,2,0,25,NA,1,NA,0,1,0,NA,NA,NA,0.500063651627378,0,105,NA,NA,NA,-1,-1,-1,NA
"141023_1115",1,10,9,2,0,0,0,1,2,2,2,1,1,1,1,1,2,1,1,2,2,2,3,2,2,3,9,1,-1,-1,-1,-1,-1,-1,-1,-1,-1,-1,-1,-1,-1,-1,100,0,0,0,0,0.900582987768847,3,0.252427100787138,0.0982754310119317,11,6,1,3,5,1,4,-1,-1,-1,19,0,-1,-1,-1,-1,-1,-1,-1,-1,-1,-1,-1,-1,0,0,0,1,-1,3,5,4,1,2,-1,-1,0,0,0,0,0,0,0,-1,0,-1,-1,NA,-1,-1,-1,-1,-1,-1,-1,1,1,1,1,0,1,-1,-1,-1,-1,-1,-1,-1,-1,-1,NA,NA,NA,NA,NA,NA,NA,NA,NA,NA,NA,NA,NA,NA,0,0,0,1,2,0,13,NA,1,NA,0,1,0,NA,NA,NA,0.500074456217081,0,105,NA,NA,NA,-1,-1,-1,NA
"141023_1115",1,10,10,2,0,0,0,1,1,2,2,1,1,1,1,1,2,1,1,2,0,0,0,2,2,3,9,1,-1,-1,-1,-1,-1,-1,-1,-1,-1,-1,-1,-1,-1,-1,100,0,0,0,0,0.472746368252088,2,0.940725442925806,0.519428072739126,5,12,1,6,4,1,4,-1,-1,-1,5,3,1,1,2,3,1,2,3,2,0,0,0,2,0,0,0,1,-1,5,4,2,3,1,-1,-1,3,0,0,0,0,0,0,-1,0,-1,-1,NA,-1,-1,-1,-1,-1,-1,-1,1,1,1,1,0,1,-1,-1,-1,-1,-1,-1,-1,-1,-1,NA,NA,NA,NA,NA,NA,NA,NA,NA,NA,NA,NA,NA,NA,0,0,0,1,2,0,27,NA,1,NA,0,1,0,NA,NA,NA,0.500042199516549,0,105,NA,NA,NA,-1,-1,-1,NA
"141023_1115",1,10,11,1,0,0,0,0,2,1,2,2,2,3,2,2,2,3,3,3,-1,-1,-1,0,0,0,5,5,-1,-1,-1,-1,-1,-1,-1,-1,-1,-1,-1,-1,-1,-1,100,0,0,0,0,0.473487272147782,3,0.0313302725699406,0.512418655917243,6,1,2,1,2,1,4,-1,2,-1,20,0,-1,-1,-1,-1,-1,-1,-1,-1,-1,-1,-1,-1,0,0,5,1,-1,4,3,1,2,5,-1,-1,2,0,0,0,0,0,0,-1,0,-1,-1,NA,-1,-1,-1,-1,-1,-1,-1,1,1,1,1,0,1,-1,-1,-1,-1,-1,-1,-1,-1,-1,NA,NA,NA,NA,NA,NA,NA,NA,NA,NA,NA,NA,NA,NA,0,0,15,1,2,0,0,NA,1,NA,0,1,0,NA,NA,NA,0.500008585439021,1,105,NA,NA,NA,-1,-1,-1,NA
"141023_1115",1,10,12,2,0,0,0,0,1,2,2,1,1,1,1,1,2,1,1,2,-1,-1,-1,2,2,3,9,1,-1,-1,-1,-1,-1,-1,-1,-1,-1,-1,-1,-1,-1,-1,100,0,0,0,0,0.585407995891482,1,0.133515521946138,0.220350001109927,8,4,1,2,4,1,4,1,-1,-1,1,5,0,1,3,3,3,2,3,3,0,0,0,3,0,0,0,1,-1,5,4,2,3,1,-1,-1,3,0,0,0,0,0,0,-1,0,-1,-1,NA,-1,-1,-1,-1,-1,-1,-1,1,1,1,1,0,1,-1,-1,-1,-1,-1,-1,-1,-1,-1,NA,NA,NA,NA,NA,NA,NA,NA,NA,NA,NA,NA,NA,NA,0,0,23,1,2,0,0,NA,1,NA,0,1,0,NA,NA,NA,0.500071352181524,0,105,NA,NA,NA,-1,-1,-1,NA
"141023_1115",1,11,1,2,0,0,0,0,1,2,2,1,1,1,1,1,1,1,1,1,-1,-1,-1,0,0,0,9,1,-1,-1,-1,-1,-1,-1,-1,-1,-1,-1,-1,-1,-1,-1,100,0,0,0,0,0.715169017536179,1,0.544837160289677,0.305617446222164,10,7,2,4,4,1,4,1,-1,-1,21,0,-1,-1,-1,-1,-1,-1,-1,-1,-1,-1,-1,-1,0,0,0,1,-1,2,1,5,4,3,-1,-1,1,0,0,0,0,0,0,-1,0,-1,-1,NA,-1,-1,-1,-1,-1,-1,-1,1,1,1,1,0,1,-1,-1,-1,-1,-1,-1,-1,-1,-1,NA,NA,NA,NA,NA,NA,NA,NA,NA,NA,NA,NA,NA,NA,0,0,21,1,2,0,0,NA,1,NA,0,1,0,NA,NA,NA,0.500038657306572,0,105,NA,NA,NA,-1,-1,-1,NA
"141023_1115",1,11,2,1,0,0,0,1,1,2,2,2,2,3,2,2,2,3,3,3,0,0,0,0,0,0,5,5,-1,-1,-1,-1,-1,-1,-1,-1,-1,-1,-1,-1,-1,-1,100,0,0,0,0,0.096584041647885,2,0.193745215513625,0.545431827448975,1,3,2,2,1,1,4,-1,-1,-1,19,0,-1,-1,-1,-1,-1,-1,-1,-1,-1,-1,-1,-1,0,0,0,1,-1,3,5,4,1,2,-1,-1,0,0,0,0,0,0,0,-1,0,-1,-1,NA,-1,-1,-1,-1,-1,-1,-1,1,1,1,1,0,1,-1,-1,-1,-1,-1,-1,-1,-1,-1,NA,NA,NA,NA,NA,NA,NA,NA,NA,NA,NA,NA,NA,NA,0,0,0,1,2,0,26,NA,1,NA,0,1,0,NA,NA,NA,0.500041010782747,0,105,NA,NA,NA,-1,-1,-1,NA
"141023_1115",1,11,3,1,0,0,0,0,3,2,2,2,2,3,2,2,2,3,3,3,-1,-1,-1,0,0,0,5,5,-1,-1,-1,-1,-1,-1,-1,-1,-1,-1,-1,-1,-1,-1,100,0,0,0,0,0.670047198268607,2,0.895804893642573,0.422468654542448,8,11,2,6,3,1,4,-1,-1,2,28,0,-1,-1,-1,-1,-1,-1,-1,-1,-1,-1,-1,-1,0,0,0,1,-1,4,3,1,2,5,-1,-1,2,0,0,0,0,0,0,-1,0,-1,-1,NA,-1,-1,-1,-1,-1,-1,-1,1,1,1,1,0,1,-1,-1,-1,-1,-1,-1,-1,-1,-1,NA,NA,NA,NA,NA,NA,NA,NA,NA,NA,NA,NA,NA,NA,0,0,17,1,2,0,0,NA,1,NA,0,1,0,NA,NA,NA,0.500084267956384,0,105,NA,NA,NA,-1,-1,-1,NA
"141023_1115",1,11,4,1,0,0,0,1,3,2,2,2,2,3,2,2,2,3,3,3,0,0,0,0,0,0,5,5,-1,-1,-1,-1,-1,-1,-1,-1,-1,-1,-1,-1,-1,-1,100,0,0,0,0,0.28509221378951,2,0.952186948131857,0.432533194978038,4,12,1,6,3,1,4,-1,-1,-1,2,3,1,3,3,3,1,2,2,3,0,0,0,2,0,0,0,1,-1,5,4,2,3,1,-1,-1,3,0,0,0,0,0,0,-1,0,-1,-1,NA,-1,-1,-1,-1,-1,-1,-1,1,1,1,1,0,1,-1,-1,-1,-1,-1,-1,-1,-1,-1,NA,NA,NA,NA,NA,NA,NA,NA,NA,NA,NA,NA,NA,NA,0,0,0,1,2,0,27,NA,1,NA,0,1,0,NA,NA,NA,0.50008020608061,0,105,NA,NA,NA,-1,-1,-1,NA
"141023_1115",1,11,5,1,0,0,0,0,1,2,2,2,2,3,2,2,2,3,3,3,-1,-1,-1,0,0,0,5,5,-1,-1,-1,-1,-1,-1,-1,-1,-1,-1,-1,-1,-1,-1,100,0,0,0,0,0.202247548476908,2,0.615654199205178,0.582005277081395,3,8,1,4,1,1,4,2,-1,-1,9,9,0,1,3,2,1,3,1,1,0,3,3,1,0,0,0,1,-1,2,1,5,4,3,-1,-1,1,0,0,0,0,0,0,-1,0,-1,-1,NA,-1,-1,-1,-1,-1,-1,-1,1,1,1,1,0,1,-1,-1,-1,-1,-1,-1,-1,-1,-1,NA,NA,NA,NA,NA,NA,NA,NA,NA,NA,NA,NA,NA,NA,0,0,22,1,2,0,0,NA,1,NA,0,1,0,NA,NA,NA,0.500037897201692,0,105,NA,NA,NA,-1,-1,-1,NA
"141023_1115",1,11,6,2,0,0,0,1,2,2,2,1,1,1,1,1,1,1,1,1,0,0,0,0,0,0,9,1,-1,-1,-1,-1,-1,-1,-1,-1,-1,-1,-1,-1,-1,-1,100,0,0,0,0,0.58385291536518,1,0.172677098853829,0.795173052137333,7,2,1,1,5,1,4,-1,-1,-1,5,5,1,3,3,2,2,1,3,3,0,0,0,3,0,0,0,1,-1,4,3,1,2,5,-1,-1,2,0,0,0,0,0,0,-1,0,-1,-1,NA,-1,-1,-1,-1,-1,-1,-1,1,1,1,1,0,1,-1,-1,-1,-1,-1,-1,-1,-1,-1,NA,NA,NA,NA,NA,NA,NA,NA,NA,NA,NA,NA,NA,NA,0,0,0,1,2,0,27,NA,1,NA,0,1,0,NA,NA,NA,0.500052604089096,0,105,NA,NA,NA,-1,-1,-1,NA
"141023_1115",1,11,7,2,0,0,0,0,2,2,2,1,1,1,1,1,1,1,1,1,-1,-1,-1,0,0,0,9,1,-1,-1,-1,-1,-1,-1,-1,-1,-1,-1,-1,-1,-1,-1,100,0,0,0,0,0.815948542587435,2,0.218378237550323,0.283038508278801,11,4,1,2,5,1,4,-1,1,-1,13,0,-1,-1,-1,-1,-1,-1,-1,-1,-1,-1,-1,-1,0,0,5,1,-1,5,4,2,3,1,-1,-1,3,0,0,0,0,0,0,-1,0,-1,-1,NA,-1,-1,-1,-1,-1,-1,-1,1,1,1,1,0,1,-1,-1,-1,-1,-1,-1,-1,-1,-1,NA,NA,NA,NA,NA,NA,NA,NA,NA,NA,NA,NA,NA,NA,0,24,18,1,2,0,0,NA,1,NA,0,1,0,NA,NA,NA,0.500012697767938,1,105,NA,NA,NA,-1,-1,-1,NA
"141023_1115",1,11,8,1,0,0,0,1,2,2,2,2,2,3,2,2,2,3,3,3,0,0,0,0,0,0,5,5,-1,-1,-1,-1,-1,-1,-1,-1,-1,-1,-1,-1,-1,-1,100,0,0,0,0,0.174547251395205,1,0.50349901174358,0.805158405939656,2,6,1,3,2,1,4,-1,-1,-1,14,0,-1,-1,-1,-1,-1,-1,-1,-1,-1,-1,-1,-1,0,0,0,1,-1,2,1,5,4,3,-1,-1,1,0,0,0,0,0,0,-1,0,-1,-1,NA,-1,-1,-1,-1,-1,-1,-1,1,1,1,1,0,1,-1,-1,-1,-1,-1,-1,-1,-1,-1,NA,NA,NA,NA,NA,NA,NA,NA,NA,NA,NA,NA,NA,NA,0,0,0,1,2,0,27,NA,1,NA,0,1,0,NA,NA,NA,0.500039157794108,0,105,NA,NA,NA,-1,-1,-1,NA
"141023_1115",1,11,9,2,0,0,0,1,1,2,2,1,1,1,1,1,1,1,1,1,0,7,0,0,0,0,9,1,-1,-1,-1,-1,-1,-1,-1,-1,-1,-1,-1,-1,-1,-1,100,0,0,0,0,0.348830966907009,2,0.235968127490938,0.562881091871709,6,5,2,3,4,1,4,-1,-1,-1,19,0,-1,-1,-1,-1,-1,-1,-1,-1,-1,-1,-1,-1,0,0,0,1,-1,5,4,2,3,1,-1,-1,3,0,0,0,0,0,0,-1,0,-1,-1,NA,-1,-1,-1,-1,-1,-1,-1,1,1,1,1,0,1,-1,-1,-1,-1,-1,-1,-1,-1,-1,NA,NA,NA,NA,NA,NA,NA,NA,NA,NA,NA,NA,NA,NA,0,0,0,1,2,0,3,NA,1,NA,0,1,0,NA,NA,NA,0.500040434925137,0,105,NA,NA,NA,-1,-1,-1,NA
"141023_1115",1,11,10,2,0,0,0,1,3,2,2,1,1,1,1,1,1,1,1,1,0,0,0,0,0,0,9,1,-1,-1,-1,-1,-1,-1,-1,-1,-1,-1,-1,-1,-1,-1,100,0,0,0,0,0.698985878237982,2,0.857760395788476,0.161148694418906,9,10,1,5,6,1,4,-1,-1,-1,5,3,1,1,2,3,1,2,3,2,0,0,0,2,0,0,0,1,-1,3,5,4,1,2,-1,-1,0,0,0,0,0,0,0,-1,0,-1,-1,NA,-1,-1,-1,-1,-1,-1,-1,1,1,1,1,0,1,-1,-1,-1,-1,-1,-1,-1,-1,-1,NA,NA,NA,NA,NA,NA,NA,NA,NA,NA,NA,NA,NA,NA,0,0,0,1,2,0,27,NA,1,NA,0,1,0,NA,NA,NA,0.500025773527625,0,105,NA,NA,NA,-1,-1,-1,NA
"141023_1115",1,11,11,1,0,0,0,0,2,2,2,2,2,3,2,2,2,3,3,3,-1,-1,-1,0,0,0,5,5,-1,-1,-1,-1,-1,-1,-1,-1,-1,-1,-1,-1,-1,-1,100,0,0,0,0,0.298843477991802,2,0.621929846062292,0.102642970673108,5,9,2,5,2,1,4,-1,2,-1,20,0,-1,-1,-1,-1,-1,-1,-1,-1,-1,-1,-1,-1,0,0,0,1,-1,5,4,2,3,1,-1,-1,3,0,0,0,0,0,0,-1,0,-1,-1,NA,-1,-1,-1,-1,-1,-1,-1,1,1,1,1,0,1,-1,-1,-1,-1,-1,-1,-1,-1,-1,NA,NA,NA,NA,NA,NA,NA,NA,NA,NA,NA,NA,NA,NA,0,26,19,1,2,0,0,NA,1,NA,0,1,0,NA,NA,NA,0.500027051383595,0,105,NA,NA,NA,-1,-1,-1,NA
"141023_1115",1,11,12,2,0,0,0,0,3,2,2,1,1,1,1,1,1,1,1,1,-1,-1,-1,0,0,0,9,1,-1,-1,-1,-1,-1,-1,-1,-1,-1,-1,-1,-1,-1,-1,100,0,0,0,0,0.855655545767236,1,0.136317633155881,0.994769833048233,12,1,2,1,6,1,4,-1,-1,1,1,5,0,1,3,3,3,2,3,3,0,0,0,3,0,0,0,1,-1,2,1,5,4,3,-1,-1,1,0,0,0,0,0,0,-1,0,-1,-1,NA,-1,-1,-1,-1,-1,-1,-1,1,1,1,1,0,1,-1,-1,-1,-1,-1,-1,-1,-1,-1,NA,NA,NA,NA,NA,NA,NA,NA,NA,NA,NA,NA,NA,NA,0,0,15,1,2,0,0,NA,1,NA,0,1,0,NA,NA,NA,0.500033455228775,0,105,NA,NA,NA,-1,-1,-1,NA
"141023_1115",1,12,1,2,0,0,0,0,2,3,1,1,2,2,2,2,2,2,2,2,-1,-1,-1,0,0,0,7,3,-1,-1,-1,-1,-1,-1,-1,-1,-1,-1,-1,-1,-1,-1,100,0,0,0,0,0.647155267022157,1,0.763732684666166,0.352815120645247,8,10,1,5,5,1,4,-1,2,-1,21,0,-1,-1,-1,-1,-1,-1,-1,-1,-1,-1,-1,-1,0,0,0,1,-1,3,5,4,1,2,-1,-1,0,0,0,0,0,0,0,-1,0,-1,-1,NA,-1,-1,-1,-1,-1,-1,-1,1,1,1,1,0,1,-1,-1,-1,-1,-1,-1,-1,-1,-1,NA,NA,NA,NA,NA,NA,NA,NA,NA,NA,NA,NA,NA,NA,0,0,22,1,2,0,0,0,1,NA,0,1,0,NA,NA,NA,0.500021305337744,0,105,NA,NA,NA,-1,-1,-1,NA
"141023_1115",1,12,2,1,0,0,0,1,3,1,2,2,2,3,2,1,2,3,1,3,0,0,0,0,5,0,5,5,-1,-1,-1,-1,-1,-1,-1,-1,-1,-1,-1,-1,-1,-1,100,0,0,0,0,0.382688325076684,3,0.961609528382127,0.300126041425451,5,12,1,6,3,1,4,-1,-1,-1,19,0,-1,-1,-1,-1,-1,-1,-1,-1,-1,-1,-1,-1,0,0,0,1,-1,3,5,4,1,2,-1,-1,0,0,0,0,0,0,0,-1,0,-1,-1,NA,-1,-1,-1,-1,-1,-1,-1,1,1,1,1,0,1,-1,-1,-1,-1,-1,-1,-1,-1,-1,NA,NA,NA,NA,NA,NA,NA,NA,NA,NA,NA,NA,NA,NA,0,0,0,1,2,0,22,0,1,NA,0,1,0,NA,NA,NA,0.500038794449781,0,105,NA,NA,NA,-1,-1,-1,NA
"141023_1115",1,12,3,2,0,0,0,0,1,3,1,1,2,2,2,2,2,2,2,2,-1,-1,-1,0,0,0,7,3,-1,-1,-1,-1,-1,-1,-1,-1,-1,-1,-1,-1,-1,-1,100,0,0,0,0,0.584539347600443,1,0.662334608222514,0.397917841280772,7,7,2,4,4,1,4,2,-1,-1,28,0,-1,-1,-1,-1,-1,-1,-1,-1,-1,-1,-1,-1,0,0,0,1,-1,5,4,2,3,1,-1,-1,3,0,0,0,0,0,0,-1,0,-1,-1,NA,-1,-1,-1,-1,-1,-1,-1,1,1,1,1,0,1,-1,-1,-1,-1,-1,-1,-1,-1,-1,NA,NA,NA,NA,NA,NA,NA,NA,NA,NA,NA,NA,NA,NA,0,0,24,1,2,0,0,0,1,NA,0,1,0,NA,NA,NA,0.500017888717501,0,105,NA,NA,NA,-1,-1,-1,NA
"141023_1115",1,12,4,2,0,0,0,1,3,3,1,1,2,2,2,2,2,2,2,2,0,0,0,0,0,0,7,3,-1,-1,-1,-1,-1,-1,-1,-1,-1,-1,-1,-1,-1,-1,100,0,0,0,0,0.970513878376462,1,0.82030013940311,0.65943504807513,12,11,2,6,6,1,4,-1,-1,-1,2,3,1,3,3,3,1,2,2,3,0,0,0,2,0,0,0,1,-1,3,5,4,1,2,-1,-1,0,0,0,0,0,0,0,-1,0,-1,-1,NA,-1,-1,-1,-1,-1,-1,-1,1,1,1,1,0,1,-1,-1,-1,-1,-1,-1,-1,-1,-1,NA,NA,NA,NA,NA,NA,NA,NA,NA,NA,NA,NA,NA,NA,0,0,0,1,2,0,14,0,1,NA,0,1,0,NA,NA,NA,0.50007826990242,0,105,NA,NA,NA,-1,-1,-1,NA
"141023_1115",1,12,5,1,0,0,0,0,2,1,2,2,2,3,2,1,2,3,1,3,-1,-1,-1,0,5,0,5,5,-1,-1,-1,-1,-1,-1,-1,-1,-1,-1,-1,-1,-1,-1,100,0,0,0,0,0.245049698858079,3,0.055231184258699,0.268096376800954,3,2,1,1,2,1,4,-1,1,-1,9,9,0,1,3,2,1,3,1,1,0,3,3,1,0,0,0,1,-1,2,1,5,4,3,-1,-1,1,0,0,0,0,0,0,-1,0,-1,-1,NA,-1,-1,-1,-1,-1,-1,-1,1,1,1,1,0,1,-1,-1,-1,-1,-1,-1,-1,-1,-1,NA,NA,NA,NA,NA,NA,NA,NA,NA,NA,NA,NA,NA,NA,0,0,9,1,2,0,0,0,1,NA,0,1,0,NA,NA,NA,0.500082249978921,0,105,NA,NA,NA,-1,-1,-1,NA
"141023_1115",1,12,6,2,0,0,0,1,1,3,1,1,2,2,2,2,2,2,2,2,0,0,0,0,0,0,7,3,-1,-1,-1,-1,-1,-1,-1,-1,-1,-1,-1,-1,-1,-1,100,0,0,0,0,0.740690490575829,1,0.603274443467741,0.681631652490064,9,6,1,3,4,1,4,-1,-1,-1,5,5,1,3,3,2,2,1,3,3,0,0,0,3,0,0,0,1,-1,4,3,1,2,5,-1,-1,2,0,0,0,0,0,0,-1,0,-1,-1,NA,-1,-1,-1,-1,-1,-1,-1,1,1,1,1,0,1,-1,-1,-1,-1,-1,-1,-1,-1,-1,NA,NA,NA,NA,NA,NA,NA,NA,NA,NA,NA,NA,NA,NA,0,0,0,1,2,0,27,0,1,NA,0,1,0,NA,NA,NA,0.500078507510796,0,105,NA,NA,NA,-1,-1,-1,NA
"141023_1115",1,12,7,2,0,0,0,0,3,3,1,1,2,2,2,2,2,2,2,2,-1,-1,-1,0,0,0,7,3,-1,-1,-1,-1,-1,-1,-1,-1,-1,-1,-1,-1,-1,-1,100,0,0,0,0,0.757339398729307,2,0.16925444368704,0.682256299854376,10,4,1,2,6,1,4,-1,-1,2,13,0,-1,-1,-1,-1,-1,-1,-1,-1,-1,-1,-1,-1,0,0,0,1,-1,3,5,4,1,2,-1,-1,0,0,0,0,0,0,0,-1,0,-1,-1,NA,-1,-1,-1,-1,-1,-1,-1,1,1,1,1,0,1,-1,-1,-1,-1,-1,-1,-1,-1,-1,NA,NA,NA,NA,NA,NA,NA,NA,NA,NA,NA,NA,NA,NA,0,27,18,1,2,0,0,0,1,NA,0,1,0,NA,NA,NA,0.500052730384214,0,105,NA,NA,NA,-1,-1,-1,NA
"141023_1115",1,12,8,1,0,0,0,1,2,1,2,2,2,3,2,1,2,3,1,3,0,5,0,0,5,0,5,5,-1,-1,-1,-1,-1,-1,-1,-1,-1,-1,-1,-1,-1,-1,100,0,0,0,0,0.38151272730041,2,0.060593676315897,0.633886592757835,4,3,2,2,2,1,4,-1,-1,-1,14,0,-1,-1,-1,-1,-1,-1,-1,-1,-1,-1,-1,-1,0,0,0,1,-1,3,5,4,1,2,-1,-1,0,0,0,0,0,0,0,-1,0,-1,-1,NA,-1,-1,-1,-1,-1,-1,-1,1,1,1,1,0,1,-1,-1,-1,-1,-1,-1,-1,-1,-1,NA,NA,NA,NA,NA,NA,NA,NA,NA,NA,NA,NA,NA,NA,0,0,0,1,2,0,16,19,1,NA,0,1,0,NA,NA,NA,0.500089786782437,0,105,NA,NA,NA,-1,-1,-1,NA
"141023_1115",1,12,9,1,0,0,0,1,1,1,2,2,2,3,2,1,2,3,1,3,0,0,0,0,5,0,5,5,-1,-1,-1,-1,-1,-1,-1,-1,-1,-1,-1,-1,-1,-1,100,0,0,0,0,0.132628331488291,2,0.73857284138844,0.127031131241019,2,9,2,5,1,1,4,-1,-1,-1,19,0,-1,-1,-1,-1,-1,-1,-1,-1,-1,-1,-1,-1,0,0,0,1,-1,2,1,5,4,3,-1,-1,1,0,0,0,0,0,0,-1,0,-1,-1,NA,-1,-1,-1,-1,-1,-1,-1,1,1,1,1,0,1,-1,-1,-1,-1,-1,-1,-1,-1,-1,NA,NA,NA,NA,NA,NA,NA,NA,NA,NA,NA,NA,NA,NA,0,0,0,1,2,0,28,0,1,NA,0,1,0,NA,NA,NA,0.500018318340051,0,105,NA,NA,NA,-1,-1,-1,NA
"141023_1115",1,12,10,2,0,0,0,1,2,3,1,1,2,2,2,2,2,2,2,2,0,0,0,0,0,0,7,3,-1,-1,-1,-1,-1,-1,-1,-1,-1,-1,-1,-1,-1,-1,100,0,0,0,0,0.929356864154971,1,0.012222767813235,0.939444579621518,11,1,2,1,5,1,4,-1,-1,-1,5,3,1,1,2,3,1,2,3,2,0,0,0,2,0,0,0,1,-1,4,3,1,2,5,-1,-1,2,0,0,0,0,0,0,-1,0,-1,-1,NA,-1,-1,-1,-1,-1,-1,-1,1,1,1,1,0,1,-1,-1,-1,-1,-1,-1,-1,-1,-1,NA,NA,NA,NA,NA,NA,NA,NA,NA,NA,NA,NA,NA,NA,0,0,0,1,2,0,25,0,1,NA,0,1,0,NA,NA,NA,0.500059478356065,0,105,NA,NA,NA,-1,-1,-1,NA
"141023_1115",1,12,11,1,0,0,0,0,3,1,2,2,2,3,2,1,2,3,1,3,-1,-1,-1,0,5,0,5,5,-1,-1,-1,-1,-1,-1,-1,-1,-1,-1,-1,-1,-1,-1,100,0,0,0,0,0.452346943529484,3,0.672113532979094,0.200821863115217,6,8,1,4,3,1,4,-1,-1,2,20,0,-1,-1,-1,-1,-1,-1,-1,-1,-1,-1,-1,-1,0,0,0,1,-1,2,1,5,4,3,-1,-1,1,0,0,0,0,0,0,-1,0,-1,-1,NA,-1,-1,-1,-1,-1,-1,-1,1,1,1,1,0,1,-1,-1,-1,-1,-1,-1,-1,-1,-1,NA,NA,NA,NA,NA,NA,NA,NA,NA,NA,NA,NA,NA,NA,0,0,3,1,2,0,0,0,1,NA,0,1,0,NA,NA,NA,0.500042805863704,0,105,NA,NA,NA,-1,-1,-1,NA
"141023_1115",1,12,12,1,0,0,0,0,1,1,2,2,2,3,2,1,2,3,1,3,-1,-1,-1,0,5,0,5,5,-1,-1,-1,-1,-1,-1,-1,-1,-1,-1,-1,-1,-1,-1,100,0,0,0,0,0.0843673237060976,3,0.368205896284527,0.77134351840771,1,5,2,3,1,1,4,2,-1,-1,1,5,0,1,3,3,3,2,3,3,0,0,0,3,0,0,5,1,-1,2,1,5,4,3,-1,-1,1,0,0,0,0,0,0,-1,0,-1,-1,NA,-1,-1,-1,-1,-1,-1,-1,1,1,1,1,0,1,-1,-1,-1,-1,-1,-1,-1,-1,-1,NA,NA,NA,NA,NA,NA,NA,NA,NA,NA,NA,NA,NA,NA,0,25,16,1,2,0,0,0,1,NA,0,1,0,NA,NA,NA,0.500010648211469,1,105,NA,NA,NA,-1,-1,-1,NA
"141023_1115",1,13,1,2,0,0,0,0,2,1,3,3,2,3,2,2,2,3,3,3,-1,-1,-1,0,0,0,5,5,-1,-1,-1,-1,-1,-1,-1,-1,-1,-1,-1,-1,-1,-1,100,0,0,0,0,0.753957335256952,3,0.629680954678767,0.644901635891246,10,9,2,5,5,1,4,-1,2,-1,21,0,-1,-1,-1,-1,-1,-1,-1,-1,-1,-1,-1,-1,0,0,0,1,-1,3,5,4,1,2,-1,-1,0,0,0,0,0,0,0,-1,0,-1,-1,NA,-1,-1,-1,-1,-1,-1,-1,1,1,1,1,0,1,-1,-1,-1,-1,-1,-1,-1,-1,-1,NA,NA,NA,NA,NA,NA,NA,NA,NA,NA,NA,NA,NA,NA,0,0,22,1,2,0,0,0,1,NA,0,1,0,NA,NA,NA,0.500056481578553,0,105,NA,NA,NA,-1,-1,-1,NA
"141023_1115",1,13,2,1,0,0,0,1,3,3,2,1,1,1,2,1,1,2,1,1,0,3,4,0,4,3,9,1,-1,-1,-1,-1,-1,-1,-1,-1,-1,-1,-1,-1,-1,-1,100,0,0,0,0,0.463442387740799,3,0.0904604508962764,0.29379322300376,6,3,2,2,3,1,4,-1,-1,-1,19,0,-1,-1,-1,-1,-1,-1,-1,-1,-1,-1,-1,-1,0,0,0,1,-1,5,4,2,3,1,-1,-1,3,0,0,0,0,0,0,-1,0,-1,-1,NA,-1,-1,-1,-1,-1,-1,-1,1,1,1,1,0,1,-1,-1,-1,-1,-1,-1,-1,-1,-1,NA,NA,NA,NA,NA,NA,NA,NA,NA,NA,NA,NA,NA,NA,0,0,0,1,2,0,20,0,1,NA,0,1,0,NA,NA,NA,0.500050788001693,0,105,NA,NA,NA,-1,-1,-1,NA
"141023_1115",1,13,3,2,0,0,0,0,1,1,3,3,2,3,2,2,2,3,3,3,-1,-1,-1,0,0,0,5,5,-1,-1,-1,-1,-1,-1,-1,-1,-1,-1,-1,-1,-1,-1,100,0,0,0,0,0.595079900042657,2,0.760933663584727,0.047805286034851,8,10,1,5,4,1,4,2,-1,-1,28,0,-1,-1,-1,-1,-1,-1,-1,-1,-1,-1,-1,-1,0,0,0,1,-1,2,1,5,4,3,-1,-1,1,0,0,0,0,0,0,-1,0,-1,-1,NA,-1,-1,-1,-1,-1,-1,-1,1,1,1,1,0,1,-1,-1,-1,-1,-1,-1,-1,-1,-1,NA,NA,NA,NA,NA,NA,NA,NA,NA,NA,NA,NA,NA,NA,0,27,25,1,2,0,0,0,1,NA,0,1,0,NA,NA,NA,0.500087914946949,0,105,NA,NA,NA,-1,-1,-1,NA
"141023_1115",1,13,4,2,0,0,0,1,3,1,3,3,2,3,2,2,2,3,3,3,0,0,0,0,0,0,5,5,-1,-1,-1,-1,-1,-1,-1,-1,-1,-1,-1,-1,-1,-1,100,0,0,0,0,0.843902128675907,1,0.354771126226881,0.218948672627541,12,5,2,3,6,1,4,-1,-1,-1,2,3,1,3,3,3,1,2,2,3,0,0,0,2,0,0,0,1,-1,5,4,2,3,1,-1,-1,3,0,0,0,0,0,0,-1,0,-1,-1,NA,-1,-1,-1,-1,-1,-1,-1,1,1,1,1,0,1,-1,-1,-1,-1,-1,-1,-1,-1,-1,NA,NA,NA,NA,NA,NA,NA,NA,NA,NA,NA,NA,NA,NA,0,0,0,1,2,0,27,0,1,NA,0,1,0,NA,NA,NA,0.500030601262967,0,105,NA,NA,NA,-1,-1,-1,NA
"141023_1115",1,13,5,2,0,0,0,0,3,1,3,3,2,3,2,2,2,3,3,3,-1,-1,-1,0,0,0,5,5,-1,-1,-1,-1,-1,-1,-1,-1,-1,-1,-1,-1,-1,-1,100,0,0,0,0,0.763914231101011,3,0.622331886376409,0.638318495190851,11,8,1,4,6,1,4,-1,-1,2,9,9,0,1,3,2,1,3,1,1,0,3,3,1,0,0,0,1,-1,3,5,4,1,2,-1,-1,0,0,0,0,0,0,0,-1,0,-1,-1,NA,-1,-1,-1,-1,-1,-1,-1,1,1,1,1,0,1,-1,-1,-1,-1,-1,-1,-1,-1,-1,NA,NA,NA,NA,NA,NA,NA,NA,NA,NA,NA,NA,NA,NA,0,0,19,1,2,0,0,0,1,NA,0,1,0,NA,NA,NA,0.500011580759106,0,105,NA,NA,NA,-1,-1,-1,NA
"141023_1115",1,13,6,1,0,0,0,1,1,3,2,1,1,1,2,1,1,2,1,1,0,0,0,0,4,3,9,1,-1,-1,-1,-1,-1,-1,-1,-1,-1,-1,-1,-1,-1,-1,100,0,0,0,0,0.0762107596156237,2,0.0334956413290909,0.818684020460902,1,1,2,1,1,1,4,-1,-1,-1,5,5,1,3,3,2,2,1,3,3,0,0,0,3,0,0,0,1,-1,3,5,4,1,2,-1,-1,0,0,0,0,0,0,0,-1,0,-1,-1,NA,-1,-1,-1,-1,-1,-1,-1,1,1,1,1,0,1,-1,-1,-1,-1,-1,-1,-1,-1,-1,NA,NA,NA,NA,NA,NA,NA,NA,NA,NA,NA,NA,NA,NA,0,0,0,1,2,0,27,0,1,NA,0,1,0,NA,NA,NA,0.500016836913869,0,105,NA,NA,NA,-1,-1,-1,NA
"141023_1115",1,13,7,1,0,0,0,0,2,3,2,1,1,1,2,1,1,2,1,1,-1,-1,-1,0,4,3,9,1,-1,-1,-1,-1,-1,-1,-1,-1,-1,-1,-1,-1,-1,-1,100,0,0,0,0,0.39567487891562,1,0.532014328302822,0.78811470828397,4,7,2,4,2,1,4,-1,1,-1,13,5,0,2,3,1,2,2,1,1,0,4,3,1,1,0,0,1,-1,3,5,4,1,2,-1,-1,0,0,0,0,0,0,0,-1,0,-1,-1,NA,-1,-1,-1,-1,-1,-1,-1,1,1,1,1,0,1,-1,-1,-1,-1,-1,-1,-1,-1,-1,NA,NA,NA,NA,NA,NA,NA,NA,NA,NA,NA,NA,NA,NA,0,0,12,1,2,0,0,0,1,NA,0,1,0,NA,NA,NA,0.500015426692793,0,105,NA,NA,NA,-1,-1,-1,NA
"141023_1115",1,13,8,1,0,0,0,1,2,3,2,1,1,1,2,1,1,2,1,1,0,4,3,0,4,3,9,1,-1,-1,-1,-1,-1,-1,-1,-1,-1,-1,-1,-1,-1,-1,100,0,0,0,0,0.107689934832831,1,0.858907456444068,0.626994657622182,3,11,2,6,2,1,4,-1,-1,-1,14,0,-1,-1,-1,-1,-1,-1,-1,-1,-1,-1,-1,-1,0,0,0,1,-1,5,4,2,3,1,-1,-1,3,0,0,0,0,0,0,-1,0,-1,-1,NA,-1,-1,-1,-1,-1,-1,-1,1,1,1,1,0,1,-1,-1,-1,-1,-1,-1,-1,-1,-1,NA,NA,NA,NA,NA,NA,NA,NA,NA,NA,NA,NA,NA,NA,0,0,0,1,2,0,3,6,1,NA,0,1,0,NA,NA,NA,0.500046411425037,0,105,NA,NA,NA,-1,-1,-1,NA
"141023_1115",1,13,9,2,0,0,0,1,2,1,3,3,2,3,2,2,2,3,3,3,0,0,0,0,0,0,5,5,-1,-1,-1,-1,-1,-1,-1,-1,-1,-1,-1,-1,-1,-1,100,0,0,0,0,0.62484963593299,3,0.156697677055699,0.617858275127531,9,4,1,2,5,1,4,-1,-1,-1,19,0,-1,-1,-1,-1,-1,-1,-1,-1,-1,-1,-1,-1,0,0,0,1,-1,2,1,5,4,3,-1,-1,1,0,0,0,0,0,0,-1,0,-1,-1,NA,-1,-1,-1,-1,-1,-1,-1,1,1,1,1,0,1,-1,-1,-1,-1,-1,-1,-1,-1,-1,NA,NA,NA,NA,NA,NA,NA,NA,NA,NA,NA,NA,NA,NA,0,0,0,1,2,0,25,0,1,NA,0,1,0,NA,NA,NA,0.500018910914249,0,105,NA,NA,NA,-1,-1,-1,NA
"141023_1115",1,13,10,2,0,0,0,1,1,1,3,3,2,3,2,2,2,3,3,3,0,0,0,0,0,0,5,5,-1,-1,-1,-1,-1,-1,-1,-1,-1,-1,-1,-1,-1,-1,100,0,0,0,0,0.501356935362032,3,0.485118322765975,0.0282086418141651,7,6,1,3,4,1,4,-1,-1,-1,5,3,1,1,2,3,1,2,3,2,0,0,0,2,0,0,0,1,-1,5,4,2,3,1,-1,-1,3,0,0,0,0,0,0,-1,0,-1,-1,NA,-1,-1,-1,-1,-1,-1,-1,1,1,1,1,0,1,-1,-1,-1,-1,-1,-1,-1,-1,-1,NA,NA,NA,NA,NA,NA,NA,NA,NA,NA,NA,NA,NA,NA,0,0,0,1,2,0,27,0,1,NA,0,1,0,NA,NA,NA,0.500055675045566,0,105,NA,NA,NA,-1,-1,-1,NA
"141023_1115",1,13,11,1,0,0,0,0,1,3,2,1,1,1,2,1,1,2,1,1,-1,-1,-1,0,4,3,9,1,-1,-1,-1,-1,-1,-1,-1,-1,-1,-1,-1,-1,-1,-1,100,0,0,0,0,0.0935779088612543,3,0.865133730166188,0.0936335823934682,2,12,1,6,1,1,4,2,-1,-1,20,0,-1,-1,-1,-1,-1,-1,-1,-1,-1,-1,-1,-1,0,0,0,1,-1,2,1,5,4,3,-1,-1,1,0,0,0,0,0,0,-1,0,-1,-1,NA,-1,-1,-1,-1,-1,-1,-1,1,1,1,1,0,1,-1,-1,-1,-1,-1,-1,-1,-1,-1,NA,NA,NA,NA,NA,NA,NA,NA,NA,NA,NA,NA,NA,NA,0,0,19,1,2,0,0,0,1,NA,0,1,0,NA,NA,NA,0.500037818294688,0,105,NA,NA,NA,-1,-1,-1,NA
"141023_1115",1,13,12,1,0,0,0,0,3,3,2,1,1,1,2,1,1,2,1,1,-1,-1,-1,0,4,3,9,1,-1,-1,-1,-1,-1,-1,-1,-1,-1,-1,-1,-1,-1,-1,100,0,0,0,0,0.408927772384569,1,0.0876041464915518,0.711548179253725,5,2,1,1,3,1,4,-1,-1,1,1,5,0,1,3,3,3,2,3,3,0,0,0,3,0,0,5,1,-1,2,1,5,4,3,-1,-1,1,0,0,0,0,0,0,-1,0,-1,-1,NA,-1,-1,-1,-1,-1,-1,-1,1,1,1,1,0,1,-1,-1,-1,-1,-1,-1,-1,-1,-1,NA,NA,NA,NA,NA,NA,NA,NA,NA,NA,NA,NA,NA,NA,0,27,10,1,2,0,0,0,1,NA,0,1,0,NA,NA,NA,0.500011363537755,1,105,NA,NA,NA,-1,-1,-1,NA
"141023_1115",1,14,1,2,0,0,0,0,1,1,3,3,2,3,2,1,2,3,2,3,-1,-1,-1,0,2,0,5,5,-1,-1,-1,-1,-1,-1,-1,-1,-1,-1,-1,-1,-1,-1,100,0,0,0,0,0.419950315458677,3,0.702310982952971,0.517404023798836,4,7,2,4,4,1,4,2,-1,-1,21,0,-1,-1,-1,-1,-1,-1,-1,-1,-1,-1,-1,-1,0,0,0,1,-1,4,3,1,2,5,-1,-1,2,0,0,0,0,0,0,-1,0,-1,-1,NA,-1,-1,-1,-1,-1,-1,-1,1,1,1,1,0,1,-1,-1,-1,-1,-1,-1,-1,-1,-1,NA,NA,NA,NA,NA,NA,NA,NA,NA,NA,NA,NA,NA,NA,0,28,24,1,2,0,0,NA,1,NA,0,1,0,NA,NA,NA,0.500086752962874,0,105,NA,NA,NA,-1,-1,-1,NA
"141023_1115",1,14,2,1,0,0,0,1,3,2,1,3,2,3,2,2,2,3,3,3,0,0,0,0,0,0,5,5,-1,-1,-1,-1,-1,-1,-1,-1,-1,-1,-1,-1,-1,-1,100,0,0,0,0,0.669866010858615,3,0.357357864900193,0.869790410096659,8,3,2,2,3,1,4,-1,-1,-1,19,0,-1,-1,-1,-1,-1,-1,-1,-1,-1,-1,-1,-1,0,0,0,1,-1,3,5,4,1,2,-1,-1,0,0,0,0,0,0,0,-1,0,-1,-1,NA,-1,-1,-1,-1,-1,-1,-1,1,1,1,1,0,1,-1,-1,-1,-1,-1,-1,-1,-1,-1,NA,NA,NA,NA,NA,NA,NA,NA,NA,NA,NA,NA,NA,NA,0,0,0,1,2,0,27,NA,1,NA,0,1,0,NA,NA,NA,0.500083112170772,0,105,NA,NA,NA,-1,-1,-1,NA
"141023_1115",1,14,3,1,0,0,0,0,2,2,1,3,2,3,2,2,2,3,3,3,-1,-1,-1,0,0,0,5,5,-1,-1,-1,-1,-1,-1,-1,-1,-1,-1,-1,-1,-1,-1,100,0,0,0,0,0.346516838924269,3,0.618295855642434,0.764257699141399,2,6,1,3,2,1,4,-1,2,-1,28,0,-1,-1,-1,-1,-1,-1,-1,-1,-1,-1,-1,-1,0,0,5,1,-1,3,5,4,1,2,-1,-1,0,0,0,0,0,0,0,-1,0,-1,-1,NA,-1,-1,-1,-1,-1,-1,-1,1,1,1,1,0,1,-1,-1,-1,-1,-1,-1,-1,-1,-1,NA,NA,NA,NA,NA,NA,NA,NA,NA,NA,NA,NA,NA,NA,0,27,13,1,2,0,0,NA,1,NA,0,1,0,NA,NA,NA,0.500005957301662,1,105,NA,NA,NA,-1,-1,-1,NA
"141023_1115",1,14,4,1,0,0,0,1,2,2,1,3,2,3,2,2,2,3,3,3,0,0,0,0,0,0,5,5,-1,-1,-1,-1,-1,-1,-1,-1,-1,-1,-1,-1,-1,-1,100,0,0,0,0,0.657620455444614,1,0.731964480938373,0.612034516228379,7,8,1,4,2,1,4,-1,-1,-1,2,3,1,3,3,3,1,2,2,3,0,0,0,2,0,0,0,1,-1,5,4,2,3,1,-1,-1,3,0,0,0,0,0,0,-1,0,-1,-1,NA,-1,-1,-1,-1,-1,-1,-1,1,1,1,1,0,1,-1,-1,-1,-1,-1,-1,-1,-1,-1,NA,NA,NA,NA,NA,NA,NA,NA,NA,NA,NA,NA,NA,NA,0,0,0,1,2,0,26,NA,1,NA,0,1,0,NA,NA,NA,0.500021558075315,0,105,NA,NA,NA,-1,-1,-1,NA
"141023_1115",1,14,5,2,0,0,0,0,3,1,3,3,2,3,2,1,2,3,2,3,-1,-1,-1,0,2,0,5,5,-1,-1,-1,-1,-1,-1,-1,-1,-1,-1,-1,-1,-1,-1,100,0,0,0,0,0.808627357617313,3,0.357825679405511,0.976193768426866,9,4,1,2,6,1,4,-1,-1,2,9,9,0,1,3,2,1,3,1,1,0,3,3,1,0,0,0,1,-1,2,1,5,4,3,-1,-1,1,0,0,0,0,0,0,-1,0,-1,-1,NA,-1,-1,-1,-1,-1,-1,-1,1,1,1,1,0,1,-1,-1,-1,-1,-1,-1,-1,-1,-1,NA,NA,NA,NA,NA,NA,NA,NA,NA,NA,NA,NA,NA,NA,0,0,19,1,2,0,0,NA,1,NA,0,1,0,NA,NA,NA,0.500085352624387,0,105,NA,NA,NA,-1,-1,-1,NA
"141023_1115",1,14,6,2,0,0,0,1,2,1,3,3,2,3,2,1,2,3,2,3,0,0,0,0,2,0,5,5,-1,-1,-1,-1,-1,-1,-1,-1,-1,-1,-1,-1,-1,-1,100,0,0,0,0,0.948003516508268,3,0.951286798320379,0.738498529297532,11,12,1,6,5,1,4,-1,-1,-1,5,5,1,3,3,2,2,1,3,3,0,0,0,3,0,0,0,1,-1,4,3,1,2,5,-1,-1,2,0,0,0,0,0,0,-1,0,-1,-1,NA,-1,-1,-1,-1,-1,-1,-1,1,1,1,1,0,1,-1,-1,-1,-1,-1,-1,-1,-1,-1,NA,NA,NA,NA,NA,NA,NA,NA,NA,NA,NA,NA,NA,NA,0,0,0,1,2,0,27,NA,1,NA,0,1,0,NA,NA,NA,0.500045590552988,0,105,NA,NA,NA,-1,-1,-1,NA
"141023_1115",1,14,7,2,0,0,0,0,2,1,3,3,2,3,2,1,2,3,2,3,-1,-1,-1,0,2,0,5,5,-1,-1,-1,-1,-1,-1,-1,-1,-1,-1,-1,-1,-1,-1,100,0,0,0,0,0.57047017736848,2,0.873931169916844,0.944781903617448,6,10,1,5,5,1,4,-1,1,-1,13,5,0,2,3,1,2,2,1,1,0,4,3,1,0,0,0,1,-1,3,5,4,1,2,-1,-1,0,0,0,0,0,0,0,-1,0,-1,-1,NA,-1,-1,-1,-1,-1,-1,-1,1,1,1,1,0,1,-1,-1,-1,-1,-1,-1,-1,-1,-1,NA,NA,NA,NA,NA,NA,NA,NA,NA,NA,NA,NA,NA,NA,0,0,21,1,2,0,0,NA,1,NA,0,1,0,NA,NA,NA,0.500037483764224,0,105,NA,NA,NA,-1,-1,-1,NA
"141023_1115",1,14,8,2,0,0,0,1,3,1,3,3,2,3,2,1,2,3,2,3,0,2,0,0,2,0,5,5,-1,-1,-1,-1,-1,-1,-1,-1,-1,-1,-1,-1,-1,-1,100,0,0,0,0,0.949454098450697,2,0.191162463832257,0.886123198031505,12,2,1,1,6,1,4,-1,-1,-1,14,4,1,3,1,3,3,3,2,3,0,2,0,3,1,0,0,1,-1,2,1,5,4,3,-1,-1,1,0,0,0,0,0,0,-1,0,-1,-1,NA,-1,-1,-1,-1,-1,-1,-1,1,1,1,1,0,1,-1,-1,-1,-1,-1,-1,-1,-1,-1,NA,NA,NA,NA,NA,NA,NA,NA,NA,NA,NA,NA,NA,NA,0,0,0,1,2,0,24,NA,1,NA,0,1,0,NA,NA,NA,0.500055807632001,0,105,NA,NA,NA,-1,-1,-1,NA
"141023_1115",1,14,9,1,0,0,0,1,1,2,1,3,2,3,2,2,2,3,3,3,0,0,0,0,0,0,5,5,-1,-1,-1,-1,-1,-1,-1,-1,-1,-1,-1,-1,-1,-1,100,0,0,0,0,0.438044500741197,1,0.780113992178866,0.599999474175274,5,9,2,5,1,1,4,-1,-1,-1,19,0,-1,-1,-1,-1,-1,-1,-1,-1,-1,-1,-1,-1,0,0,0,1,-1,5,4,2,3,1,-1,-1,3,0,0,0,0,0,0,-1,0,-1,-1,NA,-1,-1,-1,-1,-1,-1,-1,1,1,1,1,0,1,-1,-1,-1,-1,-1,-1,-1,-1,-1,NA,NA,NA,NA,NA,NA,NA,NA,NA,NA,NA,NA,NA,NA,0,0,0,1,2,0,23,NA,1,NA,0,1,0,NA,NA,NA,0.500070421680701,0,105,NA,NA,NA,-1,-1,-1,NA
"141023_1115",1,14,10,2,0,0,0,1,1,1,3,3,2,3,2,1,2,3,2,3,0,0,0,0,2,0,5,5,-1,-1,-1,-1,-1,-1,-1,-1,-1,-1,-1,-1,-1,-1,100,0,0,0,0,0.892271032041065,3,0.475032660865706,0.30260290312702,10,5,2,3,4,1,4,-1,-1,-1,5,3,1,1,2,3,1,2,3,2,0,0,0,2,0,0,0,1,-1,3,5,4,1,2,-1,-1,0,0,0,0,0,0,0,-1,0,-1,-1,NA,-1,-1,-1,-1,-1,-1,-1,1,1,1,1,0,1,-1,-1,-1,-1,-1,-1,-1,-1,-1,NA,NA,NA,NA,NA,NA,NA,NA,NA,NA,NA,NA,NA,NA,0,0,0,1,2,0,27,NA,1,NA,0,1,0,NA,NA,NA,0.500009510195446,0,105,NA,NA,NA,-1,-1,-1,NA
"141023_1115",1,14,11,1,0,0,0,0,1,2,1,3,2,3,2,2,2,3,3,3,-1,-1,-1,0,0,0,5,5,-1,-1,-1,-1,-1,-1,-1,-1,-1,-1,-1,-1,-1,-1,100,0,0,0,0,0.213923957298474,1,0.896253202527879,0.508347237719385,1,11,2,6,1,1,4,2,-1,-1,20,0,-1,-1,-1,-1,-1,-1,-1,-1,-1,-1,-1,-1,0,0,0,1,-1,2,1,5,4,3,-1,-1,1,0,0,0,0,0,0,-1,0,-1,-1,NA,-1,-1,-1,-1,-1,-1,-1,1,1,1,1,0,1,-1,-1,-1,-1,-1,-1,-1,-1,-1,NA,NA,NA,NA,NA,NA,NA,NA,NA,NA,NA,NA,NA,NA,0,0,20,1,2,0,0,NA,1,NA,0,1,0,NA,NA,NA,0.500097281536319,0,105,NA,NA,NA,-1,-1,-1,NA
"141023_1115",1,14,12,1,0,0,0,0,3,2,1,3,2,3,2,2,2,3,3,3,-1,-1,-1,0,0,0,5,5,-1,-1,-1,-1,-1,-1,-1,-1,-1,-1,-1,-1,-1,-1,100,0,0,0,0,0.378548604612494,1,0.00942798704347945,0.603071121314108,3,1,2,1,3,1,4,-1,-1,2,1,5,0,1,3,3,3,2,3,3,0,0,0,3,0,0,0,1,-1,2,1,5,4,3,-1,-1,1,0,0,0,0,0,0,-1,0,-1,-1,NA,-1,-1,-1,-1,-1,-1,-1,1,1,1,1,0,1,-1,-1,-1,-1,-1,-1,-1,-1,-1,NA,NA,NA,NA,NA,NA,NA,NA,NA,NA,NA,NA,NA,NA,0,0,8,1,2,0,0,NA,1,NA,0,1,0,NA,NA,NA,0.500030522538829,0,105,NA,NA,NA,-1,-1,-1,NA
"141023_1115",1,15,1,2,0,0,0,0,1,1,1,1,1,1,1,2,1,1,2,1,-1,-1,-1,0,0,0,9,1,-1,-1,-1,-1,-1,-1,-1,-1,-1,-1,-1,-1,-1,-1,100,0,0,0,0,0.39470777213327,3,0.404240738788732,0.665728133947462,6,4,1,2,4,1,4,1,-1,-1,21,0,-1,-1,-1,-1,-1,-1,-1,-1,-1,-1,-1,-1,0,0,0,1,-1,4,3,1,2,5,-1,-1,2,0,0,0,0,0,0,-1,0,-1,-1,NA,-1,-1,-1,-1,-1,-1,-1,1,1,1,1,0,1,-1,-1,-1,-1,-1,-1,-1,-1,-1,NA,NA,NA,NA,NA,NA,NA,NA,NA,NA,NA,NA,NA,NA,0,27,24,1,2,0,0,NA,1,NA,0,1,0,NA,NA,NA,0.500068693618136,0,105,NA,NA,NA,-1,-1,-1,NA
"141023_1115",1,15,2,2,0,0,0,1,2,1,1,1,1,1,1,2,1,1,2,1,5,0,2,0,0,0,9,1,-1,-1,-1,-1,-1,-1,-1,-1,-1,-1,-1,-1,-1,-1,100,0,0,0,0,0.707208130372319,1,0.771875444227772,0.327574886068504,9,9,2,5,5,1,4,-1,-1,-1,19,0,-1,-1,-1,-1,-1,-1,-1,-1,-1,-1,-1,-1,0,0,0,1,-1,2,1,5,4,3,-1,-1,1,0,0,0,0,0,0,-1,0,-1,-1,NA,-1,-1,-1,-1,-1,-1,-1,1,1,1,1,0,1,-1,-1,-1,-1,-1,-1,-1,-1,-1,NA,NA,NA,NA,NA,NA,NA,NA,NA,NA,NA,NA,NA,NA,0,0,0,1,2,0,12,NA,1,NA,0,1,0,NA,NA,NA,0.500027979010869,0,105,NA,NA,NA,-1,-1,-1,NA
"141023_1115",1,15,3,2,0,0,0,0,2,1,1,1,1,1,1,2,1,1,2,1,-1,-1,-1,0,0,0,9,1,-1,-1,-1,-1,-1,-1,-1,-1,-1,-1,-1,-1,-1,-1,100,0,0,0,0,0.910591136156857,3,0.265718211077954,0.588710412657219,11,3,2,2,5,1,4,-1,2,-1,28,0,-1,-1,-1,-1,-1,-1,-1,-1,-1,-1,-1,-1,0,0,0,1,-1,2,1,5,4,3,-1,-1,1,0,0,0,0,0,0,-1,0,-1,-1,NA,-1,-1,-1,-1,-1,-1,-1,1,1,1,1,0,1,-1,-1,-1,-1,-1,-1,-1,-1,-1,NA,NA,NA,NA,NA,NA,NA,NA,NA,NA,NA,NA,NA,NA,0,0,23,1,2,0,0,NA,1,NA,0,1,0,NA,NA,NA,0.500026477135497,0,105,NA,NA,NA,-1,-1,-1,NA
"141023_1115",1,15,4,1,0,0,0,1,1,2,1,3,1,2,1,2,1,2,3,2,0,0,0,0,0,0,7,3,-1,-1,-1,-1,-1,-1,-1,-1,-1,-1,-1,-1,-1,-1,100,0,0,0,0,0.161172792390535,1,0.966521223991421,0.338115499978007,3,12,1,6,1,1,4,-1,-1,-1,2,3,1,3,3,3,1,2,2,3,0,0,0,2,0,0,0,1,-1,3,5,4,1,2,-1,-1,0,0,0,0,0,0,0,-1,0,-1,-1,NA,-1,-1,-1,-1,-1,-1,-1,1,1,1,1,0,1,-1,-1,-1,-1,-1,-1,-1,-1,-1,NA,NA,NA,NA,NA,NA,NA,NA,NA,NA,NA,NA,NA,NA,0,0,0,1,2,0,28,NA,1,NA,0,1,0,NA,NA,NA,0.500013506353606,0,105,NA,NA,NA,-1,-1,-1,NA
"141023_1115",1,15,5,1,0,0,0,0,3,2,1,3,1,2,1,2,1,2,3,2,-1,-1,-1,0,0,0,7,3,-1,-1,-1,-1,-1,-1,-1,-1,-1,-1,-1,-1,-1,-1,100,0,0,0,0,0.344415101383075,1,0.917344513776407,0.584608945336476,4,10,1,5,3,1,4,-1,-1,1,9,9,0,1,3,2,1,3,1,1,0,3,3,1,0,0,0,1,-1,5,4,2,3,1,-1,-1,3,0,0,0,0,0,0,-1,0,-1,-1,NA,-1,-1,-1,-1,-1,-1,-1,1,1,1,1,0,1,-1,-1,-1,-1,-1,-1,-1,-1,-1,NA,NA,NA,NA,NA,NA,NA,NA,NA,NA,NA,NA,NA,NA,0,0,10,1,2,0,0,NA,1,NA,0,1,0,NA,NA,NA,0.500043235672053,0,105,NA,NA,NA,-1,-1,-1,NA
"141023_1115",1,15,6,2,0,0,0,1,3,1,1,1,1,1,1,2,1,1,2,1,0,0,0,0,0,0,9,1,-1,-1,-1,-1,-1,-1,-1,-1,-1,-1,-1,-1,-1,-1,100,0,0,0,0,0.826686453924834,3,0.522544270158999,0.9259735871693,10,6,1,3,6,1,4,-1,-1,-1,5,5,1,3,3,2,2,1,3,3,0,0,0,3,0,0,0,1,-1,5,4,2,3,1,-1,-1,3,0,0,0,0,0,0,-1,0,-1,-1,NA,-1,-1,-1,-1,-1,-1,-1,1,1,1,1,0,1,-1,-1,-1,-1,-1,-1,-1,-1,-1,NA,NA,NA,NA,NA,NA,NA,NA,NA,NA,NA,NA,NA,NA,0,0,0,1,2,0,27,NA,1,NA,0,1,0,NA,NA,NA,0.500074950446456,0,105,NA,NA,NA,-1,-1,-1,NA
"141023_1115",1,15,7,1,0,0,0,0,1,2,1,3,1,2,1,2,1,2,3,2,-1,-1,-1,0,0,0,7,3,-1,-1,-1,-1,-1,-1,-1,-1,-1,-1,-1,-1,-1,-1,100,0,0,0,0,0.0980951404655795,1,0.0740968222143579,0.26127926365532,1,2,1,1,1,1,4,1,-1,-1,13,5,0,2,3,1,2,2,1,1,0,4,3,1,0,0,0,1,-1,3,5,4,1,2,-1,-1,0,0,0,0,0,0,0,-1,0,-1,-1,NA,-1,-1,-1,-1,-1,-1,-1,1,1,1,1,0,1,-1,-1,-1,-1,-1,-1,-1,-1,-1,NA,NA,NA,NA,NA,NA,NA,NA,NA,NA,NA,NA,NA,NA,0,0,19,1,2,0,0,NA,1,NA,0,1,0,NA,NA,NA,0.50007920243497,0,105,NA,NA,NA,-1,-1,-1,NA
"141023_1115",1,15,8,1,0,0,0,1,3,2,1,3,1,2,1,2,1,2,3,2,0,5,0,0,0,0,7,3,-1,-1,-1,-1,-1,-1,-1,-1,-1,-1,-1,-1,-1,-1,100,0,0,0,0,0.401548562292731,2,0.0121630425621583,0.00152731733467771,7,1,2,1,3,1,4,-1,-1,-1,14,4,1,3,1,3,3,3,2,3,0,2,0,3,0,0,0,1,-1,5,4,2,3,1,-1,-1,3,0,0,0,0,0,0,-1,0,-1,-1,NA,-1,-1,-1,-1,-1,-1,-1,1,1,1,1,0,1,-1,-1,-1,-1,-1,-1,-1,-1,-1,NA,NA,NA,NA,NA,NA,NA,NA,NA,NA,NA,NA,NA,NA,0,0,0,1,2,0,20,NA,1,NA,0,1,0,NA,NA,NA,0.50007905135354,0,105,NA,NA,NA,-1,-1,-1,NA
"141023_1115",1,15,9,2,0,0,0,1,1,1,1,1,1,1,1,2,1,1,2,1,0,0,0,0,0,0,9,1,-1,-1,-1,-1,-1,-1,-1,-1,-1,-1,-1,-1,-1,-1,100,0,0,0,0,0.476343272941347,1,0.923100974374963,0.196273894140624,8,11,2,6,4,1,4,-1,-1,-1,19,0,-1,-1,-1,-1,-1,-1,-1,-1,-1,-1,-1,-1,0,0,0,1,-1,5,4,2,3,1,-1,-1,3,0,0,0,0,0,0,-1,0,-1,-1,NA,-1,-1,-1,-1,-1,-1,-1,1,1,1,1,0,1,-1,-1,-1,-1,-1,-1,-1,-1,-1,NA,NA,NA,NA,NA,NA,NA,NA,NA,NA,NA,NA,NA,NA,0,0,0,1,2,0,24,NA,1,NA,0,1,0,NA,NA,NA,0.50007263695317,0,105,NA,NA,NA,-1,-1,-1,NA
"141023_1115",1,15,10,1,0,0,0,1,2,2,1,3,1,2,1,2,1,2,3,2,0,0,0,0,0,0,7,3,-1,-1,-1,-1,-1,-1,-1,-1,-1,-1,-1,-1,-1,-1,100,0,0,0,0,0.34529095671386,1,0.611335428250644,0.157911853938322,5,7,2,4,2,1,4,-1,-1,-1,5,3,1,1,2,3,1,2,3,2,0,0,0,2,0,0,0,1,-1,2,1,5,4,3,-1,-1,1,0,0,0,0,0,0,-1,0,-1,-1,NA,-1,-1,-1,-1,-1,-1,-1,1,1,1,1,0,1,-1,-1,-1,-1,-1,-1,-1,-1,-1,NA,NA,NA,NA,NA,NA,NA,NA,NA,NA,NA,NA,NA,NA,0,0,0,1,2,0,29,NA,1,NA,0,1,0,NA,NA,NA,0.500027171573568,0,105,NA,NA,NA,-1,-1,-1,NA
"141023_1115",1,15,11,1,0,0,0,0,2,2,1,3,1,2,1,2,1,2,3,2,-1,-1,-1,0,0,0,7,3,-1,-1,-1,-1,-1,-1,-1,-1,-1,-1,-1,-1,-1,-1,100,0,0,0,0,0.119231114685177,3,0.669622443928207,0.148002839716153,2,8,1,4,2,1,4,-1,2,-1,20,0,-1,-1,-1,-1,-1,-1,-1,-1,-1,-1,-1,-1,0,0,5,1,-1,2,1,5,4,3,-1,-1,1,0,0,0,0,0,0,-1,0,-1,-1,NA,-1,-1,-1,-1,-1,-1,-1,1,1,1,1,0,1,-1,-1,-1,-1,-1,-1,-1,-1,-1,NA,NA,NA,NA,NA,NA,NA,NA,NA,NA,NA,NA,NA,NA,0,22,15,1,2,0,0,NA,1,NA,0,1,0,NA,NA,NA,0.500001285060077,1,105,NA,NA,NA,-1,-1,-1,NA
"141023_1115",1,15,12,2,0,0,0,0,3,1,1,1,1,1,1,2,1,1,2,1,-1,-1,-1,0,0,0,9,1,-1,-1,-1,-1,-1,-1,-1,-1,-1,-1,-1,-1,-1,-1,100,0,0,0,0,0.926818313508676,3,0.483727109378077,0.633581920356295,12,5,2,3,6,1,4,-1,-1,1,1,5,0,1,3,3,3,2,3,3,0,0,0,3,0,0,0,1,-1,4,3,1,2,5,-1,-1,2,0,0,0,0,0,0,-1,0,-1,-1,NA,-1,-1,-1,-1,-1,-1,-1,1,1,1,1,0,1,-1,-1,-1,-1,-1,-1,-1,-1,-1,NA,NA,NA,NA,NA,NA,NA,NA,NA,NA,NA,NA,NA,NA,0,0,20,1,2,0,0,NA,1,NA,0,1,0,NA,NA,NA,0.500090138832522,0,105,NA,NA,NA,-1,-1,-1,NA
"141023_1115",1,16,1,2,0,0,0,1,2,3,3,2,2,3,2,2,2,3,3,3,0,0,0,0,0,0,5,5,-1,-1,-1,-1,-1,-1,-1,-1,-1,-1,-1,-1,-1,-1,100,0,0,0,0,0.76391855988834,3,0.179236043328064,0.336400092270412,9,3,2,2,5,1,4,-1,-1,-1,21,0,-1,-1,-1,-1,-1,-1,-1,-1,-1,-1,-1,-1,0,0,0,1,-1,3,5,4,1,2,-1,-1,0,0,0,0,0,0,0,-1,0,-1,-1,29,-1,-1,-1,-1,-1,-1,-1,1,1,1,1,0,1,-1,-1,-1,-1,-1,-1,-1,-1,-1,NA,NA,NA,NA,NA,NA,NA,NA,NA,NA,NA,NA,NA,NA,0,0,0,1,2,0,9,20,1,NA,0,1,0,NA,NA,NA,0.500021672704034,0,105,NA,NA,NA,-1,-1,-1,NA
"141023_1115",1,16,2,2,0,0,0,0,3,3,3,2,2,3,2,2,2,3,3,3,-1,-1,-1,0,0,0,5,5,-1,-1,-1,-1,-1,-1,-1,-1,-1,-1,-1,-1,-1,-1,100,0,0,0,0,0.947774465171515,3,0.322211623807536,0.780549320290121,12,5,2,3,6,1,4,-1,-1,2,19,0,-1,-1,-1,-1,-1,-1,-1,-1,-1,-1,-1,-1,0,0,0,1,-1,3,5,4,1,2,-1,-1,0,0,0,0,0,0,0,-1,0,-1,-1,22,-1,-1,-1,-1,-1,-1,-1,1,1,1,1,0,1,-1,-1,-1,-1,-1,-1,-1,-1,-1,NA,NA,NA,NA,NA,NA,NA,NA,NA,NA,NA,NA,NA,NA,0,15,-2,1,2,0,0,0,1,NA,0,1,0,NA,NA,NA,0.500031762232367,0,105,NA,NA,NA,-1,-1,-1,NA
"141023_1115",1,16,3,1,0,0,0,1,2,2,2,3,2,3,2,2,2,3,3,3,0,0,0,0,0,0,5,5,-1,-1,-1,-1,-1,-1,-1,-1,-1,-1,-1,-1,-1,-1,100,0,0,0,0,0.441650732160383,3,0.605732662885325,0.921535890512884,4,8,1,4,2,1,4,-1,-1,-1,28,0,-1,-1,-1,-1,-1,-1,-1,-1,-1,-1,-1,-1,0,0,0,1,-1,5,4,2,3,1,-1,-1,3,0,0,0,0,0,0,-1,0,-1,-1,29,-1,-1,-1,-1,-1,-1,-1,1,1,1,1,0,1,-1,-1,-1,-1,-1,-1,-1,-1,-1,NA,NA,NA,NA,NA,NA,NA,NA,NA,NA,NA,NA,NA,NA,0,0,0,1,2,0,21,0,1,NA,0,1,0,NA,NA,NA,0.500024762506701,0,105,NA,NA,NA,-1,-1,-1,NA
"141023_1115",1,16,4,2,0,0,0,0,1,3,3,2,2,3,2,2,2,3,3,3,-1,-1,-1,0,0,0,5,5,-1,-1,-1,-1,-1,-1,-1,-1,-1,-1,-1,-1,-1,-1,100,0,0,0,0,0.619401879431401,3,0.0927192443482202,0.655278441801331,7,1,2,1,4,1,4,2,-1,-1,2,3,1,3,3,3,1,2,2,3,0,0,0,2,0,0,0,1,-1,2,1,5,4,3,-1,-1,1,0,0,0,0,0,0,-1,0,-1,-1,29,-1,-1,-1,-1,-1,-1,-1,1,1,1,1,0,1,-1,-1,-1,-1,-1,-1,-1,-1,-1,NA,NA,NA,NA,NA,NA,NA,NA,NA,NA,NA,NA,NA,NA,0,0,8,1,2,0,0,0,1,NA,0,1,0,NA,NA,NA,0.500093708652395,0,105,NA,NA,NA,-1,-1,-1,NA
"141023_1115",1,16,5,2,0,0,0,1,3,3,3,2,2,3,2,2,2,3,3,3,0,0,0,0,0,0,5,5,-1,-1,-1,-1,-1,-1,-1,-1,-1,-1,-1,-1,-1,-1,100,0,0,0,0,0.875700555683905,3,0.899239379400033,0.298861746349773,11,12,1,6,6,1,4,-1,-1,-1,9,9,0,1,3,2,1,3,1,1,0,3,3,1,0,0,0,1,-1,4,3,1,2,5,-1,-1,2,0,0,0,0,0,0,-1,0,-1,-1,29,-1,-1,-1,-1,-1,-1,-1,1,1,1,1,0,1,-1,-1,-1,-1,-1,-1,-1,-1,-1,NA,NA,NA,NA,NA,NA,NA,NA,NA,NA,NA,NA,NA,NA,0,0,0,1,2,0,25,0,1,NA,0,1,0,NA,NA,NA,0.50009072560174,0,105,NA,NA,NA,-1,-1,-1,NA
"141023_1115",1,16,6,1,0,0,0,0,3,2,2,3,2,3,2,2,2,3,3,3,-1,-1,-1,0,0,0,5,5,-1,-1,-1,-1,-1,-1,-1,-1,-1,-1,-1,-1,-1,-1,100,0,0,0,0,0.516249576358241,2,0.123453067207454,0.627938592167543,5,2,1,1,3,1,4,-1,-1,2,5,5,1,3,3,2,2,1,3,3,0,0,0,3,0,0,0,1,-1,5,4,2,3,1,-1,-1,3,0,0,0,0,0,0,-1,0,-1,-1,30,-1,-1,-1,-1,-1,-1,-1,1,1,1,1,0,1,-1,-1,-1,-1,-1,-1,-1,-1,-1,NA,NA,NA,NA,NA,NA,NA,NA,NA,NA,NA,NA,NA,NA,0,0,-6,1,2,0,0,0,1,NA,0,1,0,NA,NA,NA,0.500043296935057,0,105,NA,NA,NA,-1,-1,-1,NA
"141023_1115",1,16,7,1,0,0,0,1,3,2,2,3,2,3,2,2,2,3,3,3,0,0,0,0,0,0,5,5,-1,-1,-1,-1,-1,-1,-1,-1,-1,-1,-1,-1,-1,-1,100,0,0,0,0,0.516409761512843,3,0.25371185003487,0.634355336723083,6,4,1,2,3,1,4,-1,-1,-1,13,5,0,2,3,1,2,2,1,1,0,4,3,1,0,0,0,1,-1,3,5,4,1,2,-1,-1,0,0,0,0,0,0,0,-1,0,-1,-1,28,-1,-1,-1,-1,-1,-1,-1,1,1,1,1,0,1,-1,-1,-1,-1,-1,-1,-1,-1,-1,NA,NA,NA,NA,NA,NA,NA,NA,NA,NA,NA,NA,NA,NA,0,0,0,1,2,0,17,0,1,NA,0,1,0,NA,NA,NA,0.500061320797522,0,105,NA,NA,NA,-1,-1,-1,NA
"141023_1115",1,16,8,1,0,0,0,0,1,2,2,3,2,3,2,2,2,3,3,3,-1,-1,-1,0,0,0,5,5,-1,-1,-1,-1,-1,-1,-1,-1,-1,-1,-1,-1,-1,-1,100,0,0,0,0,0.2292685565675,2,0.65129242076133,0.769973052092815,1,9,2,5,1,1,4,2,-1,-1,14,4,1,3,1,3,3,3,2,3,0,2,0,3,0,0,0,1,-1,4,3,1,2,5,-1,-1,2,0,0,0,0,0,0,-1,0,-1,-1,27,-1,-1,-1,-1,-1,-1,-1,1,1,1,1,0,1,-1,-1,-1,-1,-1,-1,-1,-1,-1,NA,NA,NA,NA,NA,NA,NA,NA,NA,NA,NA,NA,NA,NA,0,0,8,1,2,0,0,0,1,NA,0,1,0,NA,NA,NA,0.500064540716244,0,105,NA,NA,NA,-1,-1,-1,NA
"141023_1115",1,16,9,2,0,0,0,0,2,3,3,2,2,3,2,2,2,3,3,3,-1,-1,-1,0,0,0,5,5,-1,-1,-1,-1,-1,-1,-1,-1,-1,-1,-1,-1,-1,-1,100,0,0,0,0,0.775965333346261,2,0.834170480647204,0.8238554195612,10,11,2,6,5,1,4,-1,2,-1,19,0,-1,-1,-1,-1,-1,-1,-1,-1,-1,-1,-1,-1,0,0,5,1,-1,2,1,5,4,3,-1,-1,1,0,0,0,0,0,0,-1,0,-1,-1,30,-1,-1,-1,-1,-1,-1,-1,1,1,1,1,0,1,-1,-1,-1,-1,-1,-1,-1,-1,-1,NA,NA,NA,NA,NA,NA,NA,NA,NA,NA,NA,NA,NA,NA,0,0,3,1,2,0,0,0,1,NA,0,1,0,NA,NA,NA,0.500006701477574,1,105,NA,NA,NA,-1,-1,-1,NA
"141023_1115",1,16,10,1,0,0,0,0,2,2,2,3,2,3,2,2,2,3,3,3,-1,-1,-1,0,0,0,5,5,-1,-1,-1,-1,-1,-1,-1,-1,-1,-1,-1,-1,-1,-1,100,0,0,0,0,0.399121190607139,1,0.538036565081233,0.980069290837305,3,7,2,4,2,1,4,-1,2,-1,5,3,1,1,2,3,1,2,3,2,0,0,0,2,0,0,0,1,-1,3,5,4,1,2,-1,-1,0,0,0,0,0,0,0,-1,0,-1,-1,27,-1,-1,-1,-1,-1,-1,-1,1,1,1,1,0,1,-1,-1,-1,-1,-1,-1,-1,-1,-1,NA,NA,NA,NA,NA,NA,NA,NA,NA,NA,NA,NA,NA,NA,0,17,0,1,2,0,0,0,1,NA,0,1,0,NA,NA,NA,0.500046264888275,0,105,NA,NA,NA,-1,-1,-1,NA
"141023_1115",1,16,11,2,0,0,0,1,1,3,3,2,2,3,2,2,2,3,3,3,0,0,0,0,0,0,5,5,-1,-1,-1,-1,-1,-1,-1,-1,-1,-1,-1,-1,-1,-1,100,0,0,0,0,0.752353173099623,3,0.717537061645434,0.96937090063904,8,10,1,5,4,1,4,-1,-1,-1,20,0,-1,-1,-1,-1,-1,-1,-1,-1,-1,-1,-1,-1,0,0,0,1,-1,3,5,4,1,2,-1,-1,0,0,0,0,0,0,0,-1,0,-1,-1,21,-1,-1,-1,-1,-1,-1,-1,1,1,1,1,0,1,-1,-1,-1,-1,-1,-1,-1,-1,-1,NA,NA,NA,NA,NA,NA,NA,NA,NA,NA,NA,NA,NA,NA,0,0,0,1,2,0,22,0,1,NA,0,1,0,NA,NA,NA,0.500046344184059,0,105,NA,NA,NA,-1,-1,-1,NA
"141023_1115",1,16,12,1,0,0,0,1,1,2,2,3,2,3,2,2,2,3,3,3,0,0,0,0,0,0,5,5,-1,-1,-1,-1,-1,-1,-1,-1,-1,-1,-1,-1,-1,-1,100,0,0,0,0,0.325859316776441,2,0.461910267109941,0.649357550614214,2,6,1,3,1,1,4,-1,-1,-1,1,5,0,1,3,3,3,2,3,3,0,0,0,3,0,0,0,1,-1,5,4,2,3,1,-1,-1,3,0,0,0,0,0,0,-1,0,-1,-1,30,-1,-1,-1,-1,-1,-1,-1,1,1,1,1,0,1,-1,-1,-1,-1,-1,-1,-1,-1,-1,NA,NA,NA,NA,NA,NA,NA,NA,NA,NA,NA,NA,NA,NA,0,0,0,1,2,0,22,0,1,NA,0,1,0,NA,NA,NA,0.500006825223429,0,105,NA,NA,NA,-1,-1,-1,NA
"141023_1115",1,17,1,1,0,0,0,1,3,2,2,1,2,2,2,2,2,2,2,2,2,2,2,0,0,0,7,3,-1,-1,-1,-1,-1,-1,-1,-1,-1,-1,-1,-1,-1,-1,100,0,0,0,0,0.402752915584833,3,0.155022262667782,0.980047081122197,5,2,1,1,3,1,4,-1,-1,-1,21,0,-1,-1,-1,-1,-1,-1,-1,-1,-1,-1,-1,-1,0,0,0,1,-1,2,1,5,4,3,-1,-1,1,0,0,0,0,0,0,-1,0,-1,-1,NA,-1,-1,-1,-1,-1,-1,-1,1,1,1,1,0,1,-1,-1,-1,-1,-1,-1,-1,-1,-1,NA,NA,NA,NA,NA,NA,NA,NA,NA,NA,NA,NA,NA,NA,0,0,0,1,2,0,21,NA,1,NA,0,1,0,NA,NA,NA,0.500031733579157,0,105,NA,NA,NA,-1,-1,-1,NA
"141023_1115",1,17,2,2,0,0,0,0,2,2,1,2,2,3,2,2,2,3,3,3,-1,-1,-1,0,0,0,5,5,-1,-1,-1,-1,-1,-1,-1,-1,-1,-1,-1,-1,-1,-1,100,0,0,0,0,0.45916865740864,1,0.250578605686584,0.358179155903952,8,3,2,2,5,1,4,-1,2,-1,19,0,-1,-1,-1,-1,-1,-1,-1,-1,-1,-1,-1,-1,0,0,5,1,-1,4,3,1,2,5,-1,-1,2,0,0,0,0,0,0,-1,0,-1,-1,NA,-1,-1,-1,-1,-1,-1,-1,1,1,1,1,0,1,-1,-1,-1,-1,-1,-1,-1,-1,-1,NA,NA,NA,NA,NA,NA,NA,NA,NA,NA,NA,NA,NA,NA,0,27,19,1,2,0,0,NA,1,NA,0,1,0,NA,NA,NA,0.500018466748259,1,105,NA,NA,NA,-1,-1,-1,NA
"141023_1115",1,17,3,1,0,0,0,1,1,2,2,1,2,2,2,2,2,2,2,2,2,2,2,0,0,0,7,3,-1,-1,-1,-1,-1,-1,-1,-1,-1,-1,-1,-1,-1,-1,100,0,0,0,0,0.278393894563613,2,0.685025804995105,0.604275055511051,2,10,1,5,1,1,4,-1,-1,-1,28,0,-1,-1,-1,-1,-1,-1,-1,-1,-1,-1,-1,-1,0,0,0,1,-1,2,1,5,4,3,-1,-1,1,0,0,0,0,0,0,-1,0,-1,-1,NA,-1,-1,-1,-1,-1,-1,-1,1,1,1,1,0,1,-1,-1,-1,-1,-1,-1,-1,-1,-1,NA,NA,NA,NA,NA,NA,NA,NA,NA,NA,NA,NA,NA,NA,0,0,0,1,2,0,25,NA,1,NA,0,1,0,NA,NA,NA,0.50007018912191,0,105,NA,NA,NA,-1,-1,-1,NA
"141023_1115",1,17,4,1,0,0,0,0,2,2,2,1,2,2,2,2,2,2,2,2,-1,-1,-1,0,0,0,7,3,-1,-1,-1,-1,-1,-1,-1,-1,-1,-1,-1,-1,-1,-1,100,0,0,0,0,0.30820204145657,2,0.381990143741476,0.946290482741916,3,5,2,3,2,1,4,-1,2,-1,2,3,1,3,3,3,1,2,2,3,0,0,0,2,0,0,0,1,-1,4,3,1,2,5,-1,-1,2,0,0,0,0,0,0,-1,0,-1,-1,NA,-1,-1,-1,-1,-1,-1,-1,1,1,1,1,0,1,-1,-1,-1,-1,-1,-1,-1,-1,-1,NA,NA,NA,NA,NA,NA,NA,NA,NA,NA,NA,NA,NA,NA,0,21,12,1,2,0,0,NA,1,NA,0,1,0,NA,NA,NA,0.500049366241577,0,105,NA,NA,NA,-1,-1,-1,NA
"141023_1115",1,17,5,2,0,0,0,1,2,2,1,2,2,3,2,2,2,3,3,3,0,0,0,0,0,0,5,5,-1,-1,-1,-1,-1,-1,-1,-1,-1,-1,-1,-1,-1,-1,100,0,0,0,0,0.692426116062527,1,0.626606779464803,0.951710760570928,10,8,1,4,5,1,4,-1,-1,-1,9,9,0,1,3,2,1,3,1,1,0,3,3,1,0,0,0,1,-1,2,1,5,4,3,-1,-1,1,0,0,0,0,0,0,-1,0,-1,-1,NA,-1,-1,-1,-1,-1,-1,-1,1,1,1,1,0,1,-1,-1,-1,-1,-1,-1,-1,-1,-1,NA,NA,NA,NA,NA,NA,NA,NA,NA,NA,NA,NA,NA,NA,0,0,0,1,2,0,26,NA,1,NA,0,1,0,NA,NA,NA,0.500024654046225,0,105,NA,NA,NA,-1,-1,-1,NA
"141023_1115",1,17,6,1,0,0,0,0,3,2,2,1,2,2,2,2,2,2,2,2,-1,-1,-1,0,0,0,7,3,-1,-1,-1,-1,-1,-1,-1,-1,-1,-1,-1,-1,-1,-1,100,0,0,0,0,0.440857598763359,2,0.496675587956177,0.230284948009199,6,7,2,4,3,1,4,-1,-1,2,5,5,1,3,3,2,2,1,3,3,0,0,0,3,0,0,0,1,-1,4,3,1,2,5,-1,-1,2,0,0,0,0,0,0,-1,0,-1,-1,NA,-1,-1,-1,-1,-1,-1,-1,1,1,1,1,0,1,-1,-1,-1,-1,-1,-1,-1,-1,-1,NA,NA,NA,NA,NA,NA,NA,NA,NA,NA,NA,NA,NA,NA,0,0,8,1,2,0,0,NA,1,NA,0,1,0,NA,NA,NA,0.500043013403818,0,105,NA,NA,NA,-1,-1,-1,NA
"141023_1115",1,17,7,2,0,0,0,1,1,2,1,2,2,3,2,2,2,3,3,3,0,0,0,0,0,0,5,5,-1,-1,-1,-1,-1,-1,-1,-1,-1,-1,-1,-1,-1,-1,100,0,0,0,0,0.50148348719882,1,0.809573480305063,0.420649557570298,9,11,2,6,4,1,4,-1,-1,-1,13,5,0,2,3,1,2,2,1,1,0,4,3,1,0,0,0,1,-1,5,4,2,3,1,-1,-1,3,0,0,0,0,0,0,-1,0,-1,-1,NA,-1,-1,-1,-1,-1,-1,-1,1,1,1,1,0,1,-1,-1,-1,-1,-1,-1,-1,-1,-1,NA,NA,NA,NA,NA,NA,NA,NA,NA,NA,NA,NA,NA,NA,0,0,0,1,2,0,26,NA,1,NA,0,1,0,NA,NA,NA,0.500099090697756,0,105,NA,NA,NA,-1,-1,-1,NA
"141023_1115",1,17,8,1,0,0,0,0,1,2,2,1,2,2,2,2,2,2,2,2,-1,-1,-1,0,0,0,7,3,-1,-1,-1,-1,-1,-1,-1,-1,-1,-1,-1,-1,-1,-1,100,0,0,0,0,0.111459998931484,3,0.627387200308678,0.815968529701218,1,9,2,5,1,1,4,2,-1,-1,14,4,1,3,1,3,3,3,2,3,0,2,0,3,0,0,0,1,-1,2,1,5,4,3,-1,-1,1,0,0,0,0,0,0,-1,0,-1,-1,NA,-1,-1,-1,-1,-1,-1,-1,1,1,1,1,0,1,-1,-1,-1,-1,-1,-1,-1,-1,-1,NA,NA,NA,NA,NA,NA,NA,NA,NA,NA,NA,NA,NA,NA,0,0,17,1,2,0,0,NA,1,NA,0,1,0,NA,NA,NA,0.500073091351927,0,105,NA,NA,NA,-1,-1,-1,NA
"141023_1115",1,17,9,2,0,0,0,0,3,2,1,2,2,3,2,2,2,3,3,3,-1,-1,-1,0,0,0,5,5,-1,-1,-1,-1,-1,-1,-1,-1,-1,-1,-1,-1,-1,-1,100,0,0,0,0,0.941524620606343,3,0.900374987116258,0.47462577441457,12,12,1,6,6,1,4,-1,-1,2,19,0,-1,-1,-1,-1,-1,-1,-1,-1,-1,-1,-1,-1,0,0,0,1,-1,4,3,1,2,5,-1,-1,2,0,0,0,0,0,0,-1,0,-1,-1,NA,-1,-1,-1,-1,-1,-1,-1,1,1,1,1,0,1,-1,-1,-1,-1,-1,-1,-1,-1,-1,NA,NA,NA,NA,NA,NA,NA,NA,NA,NA,NA,NA,NA,NA,0,0,15,1,2,0,0,NA,1,NA,0,1,0,NA,NA,NA,0.500089332924778,0,105,NA,NA,NA,-1,-1,-1,NA
"141023_1115",1,17,10,2,0,0,0,0,1,2,1,2,2,3,2,2,2,3,3,3,-1,-1,-1,0,0,0,5,5,-1,-1,-1,-1,-1,-1,-1,-1,-1,-1,-1,-1,-1,-1,100,0,0,0,0,0.456799555782601,2,0.285384470729802,0.984221810467644,7,4,1,2,4,1,4,2,-1,-1,5,3,1,1,2,3,1,2,3,2,0,0,0,2,0,0,0,1,-1,2,1,5,4,3,-1,-1,1,0,0,0,0,0,0,-1,0,-1,-1,NA,-1,-1,-1,-1,-1,-1,-1,1,1,1,1,0,1,-1,-1,-1,-1,-1,-1,-1,-1,-1,NA,NA,NA,NA,NA,NA,NA,NA,NA,NA,NA,NA,NA,NA,0,0,23,1,2,0,0,NA,1,NA,0,1,0,NA,NA,NA,0.500027495963232,0,105,NA,NA,NA,-1,-1,-1,NA
"141023_1115",1,17,11,1,0,0,0,1,2,2,2,1,2,2,2,2,2,2,2,2,0,0,0,0,0,0,7,3,-1,-1,-1,-1,-1,-1,-1,-1,-1,-1,-1,-1,-1,-1,100,0,0,0,0,0.350346579379563,2,0.0544083332896271,0.917073277717956,4,1,2,1,2,1,4,-1,-1,-1,20,0,-1,-1,-1,-1,-1,-1,-1,-1,-1,-1,-1,-1,0,0,0,1,-1,3,5,4,1,2,-1,-1,0,0,0,0,0,0,0,-1,0,-1,-1,NA,-1,-1,-1,-1,-1,-1,-1,1,1,1,1,0,1,-1,-1,-1,-1,-1,-1,-1,-1,-1,NA,NA,NA,NA,NA,NA,NA,NA,NA,NA,NA,NA,NA,NA,0,0,0,1,2,0,21,NA,1,NA,0,1,0,NA,NA,NA,0.500022298063255,0,105,NA,NA,NA,-1,-1,-1,NA
